,Part,TrialN,PairID,LValue,RValue,ChosenITM,ChoiceRT,Conf,ConfRT,BlockCond,tDDT,lIA_DT,rIA_DT,tGSF,lastFixat,DV,zDV,absDV,zAbsDV,zConf,zChoiceRT,TotVal,ValCh,ValUnCh,Correct,zTotVal,zValCh,zValUnCh,zGSF,zDDT,absDDT,zValR,zValL,ConfSplit,GSFMedSplit,DDTMedSplit,BaseCode,High,Low
0,1,1,49,110,131,0,4261.735,74,1584.966,LESS,-508,2392,1884,4,2,21.0,1.9685577674164243,21.0,2.0952908873087353,0.38883333852157215,1.2284490278498308,241,110,131,1,1.6155472260277064,1.170500554541026,1.9898509427197442,1.3121451823858008,-0.061319474522427676,0.061319474522427676,1.9898509427197442,1.170500554541026,1,1,1,2,1.9898509427197442,1.170500554541026
1,1,2,13,47,50,1,3559.258,54,1864.387,LESS,-504,2188,1684,4,1,3.0,0.28122253820234633,3.0,-1.0476454436543674,-0.6400531140162148,0.6552951027993201,97,47,50,1,-1.2565367313548828,-1.2875506099951286,-1.170500554541026,1.3121451823858008,-0.056456869571037405,0.056456869571037405,-1.170500554541026,-1.2875506099951286,0,1,1,0,-1.2875506099951286,-1.170500554541026
2,1,3,16,50,44,1,3754.464,64,3778.807,LESS,-48,1644,1596,2,1,-6.0,-0.5624450764046927,6.0,-0.5238227218271837,-0.1256098877473213,0.8145644953821521,94,50,44,0,-1.3163718138003533,-1.170500554541026,-1.4046006654492311,-0.3993485337695917,0.49788009488745305,0.49788009488745305,-1.4046006654492311,-1.170500554541026,0,0,1,0,-1.170500554541026,-1.4046006654492311
3,1,4,7,57,50,0,2431.751,84,3064.179,LESS,-2462,3136,674,2,1,-7.0,-0.6561859224721414,7.0,-0.34921514788478913,0.9032765647904656,-0.2646425785367606,107,57,50,0,-1.0570864565366473,-0.8973837584814532,-1.170500554541026,-0.3993485337695917,-2.436701993276573,2.436701993276573,-1.170500554541026,-0.8973837584814532,1,0,0,0,-0.8973837584814532,-1.170500554541026
4,1,5,18,42,50,0,2199.342,44,2850.845,LESS,-1130,1672,542,2,1,8.0,0.7499267685395902,8.0,-0.17460757394239454,-1.1544963402851085,-0.4542660545609781,92,42,50,1,-1.3562618687640005,-1.4826340357519663,-1.170500554541026,-0.3993485337695917,-0.8174545444636141,0.8174545444636141,-1.170500554541026,-1.4826340357519663,0,0,0,0,-1.4826340357519663,-1.170500554541026
5,1,6,51,108,110,0,3269.922,44,3745.039,LESS,-1490,2472,982,2,1,2.0,0.18748169213489754,2.0,-1.222253017596762,-1.1544963402851085,0.4192246491639493,218,108,110,1,1.156811593945765,1.092467184238291,1.170500554541026,-0.3993485337695917,-1.255088990088738,1.255088990088738,1.170500554541026,1.092467184238291,0,0,0,2,1.170500554541026,1.092467184238291
6,1,7,31,78,80,0,6606.698,74,2425.516,LESS,-1170,3474,2304,5,1,2.0,0.18748169213489754,2.0,-1.222253017596762,0.38883333852157215,3.1417141561717847,158,78,80,1,-0.03989005496364707,-0.07803337030273506,0.0,2.1678920404634967,-0.8660805939775168,0.8660805939775168,0.0,-0.07803337030273506,1,1,0,1,-0.07803337030273506,0.0
7,1,8,58,110,92,1,3642.146,74,3030.001,LESS,-1680,3044,1364,2,2,-18.0,-1.6873352292140782,18.0,1.571468165481551,0.38883333852157215,0.7229237689899384,202,110,92,0,0.8376911542365885,1.170500554541026,0.4682002218164104,-0.3993485337695917,-1.4860627252797758,1.4860627252797758,0.4682002218164104,1.170500554541026,1,0,0,2,1.170500554541026,0.4682002218164104
8,1,9,12,50,48,1,5213.48,54,2229.314,LESS,-472,2860,2388,6,1,-2.0,-0.18748169213489754,2.0,-1.222253017596762,-0.6400531140162148,2.0049817576006963,98,50,48,0,-1.2365917038730592,-1.170500554541026,-1.248533924843761,3.023638898541193,-0.017556029959915273,0.017556029959915273,-1.248533924843761,-1.170500554541026,0,1,1,0,-1.170500554541026,-1.248533924843761
9,1,10,54,110,101,1,5511.334,34,1727.761,LESS,752,2000,2752,5,2,-9.0,-0.8436676146070391,9.0,0.0,-1.6689395665540017,2.2480020830946192,211,110,101,0,1.0171964015730004,1.170500554541026,0.8193503881787182,2.1678920404634967,1.4704010851655065,1.4704010851655065,0.8193503881787182,1.170500554541026,0,1,1,2,1.170500554541026,0.8193503881787182
10,1,11,14,46,50,0,2007.957,74,1249.337,LESS,-772,1334,562,2,1,4.0,0.3749633842697951,4.0,-0.8730378697119728,0.38883333852157215,-0.6104178772481151,96,46,50,1,-1.2764817588367063,-1.3265672951464962,-1.170500554541026,-0.3993485337695917,-0.3822514013141853,0.3822514013141853,-1.170500554541026,-1.3265672951464962,1,0,0,0,-1.3265672951464962,-1.170500554541026
11,1,12,22,80,83,1,3124.521,64,1956.342,LESS,-918,2186,1268,4,1,3.0,0.28122253820234633,3.0,-1.0476454436543674,-0.1256098877473213,0.3005913645777361,163,80,83,1,0.05983508244547061,0.0,0.1170500554541026,1.3121451823858008,-0.5597364820399301,0.5597364820399301,0.1170500554541026,0.0,0,1,0,1,0.1170500554541026,0.0
12,1,13,6,50,56,0,1978.076,74,3940.974,LESS,-1050,1608,558,2,1,6.0,0.5624450764046927,6.0,-0.5238227218271837,0.38883333852157215,-0.6347979102377139,106,50,56,1,-1.077031484018471,-1.170500554541026,-0.9364004436328208,-0.3993485337695917,-0.7202024454358088,0.7202024454358088,-0.9364004436328208,-1.170500554541026,1,0,0,0,-1.170500554541026,-0.9364004436328208
13,1,14,13,50,47,1,2508.548,34,2032.978,LESS,-428,1614,1186,3,1,-3.0,-0.28122253820234633,3.0,-1.0476454436543674,-1.6689395665540017,-0.20198358474464526,97,50,47,0,-1.2565367313548828,-1.170500554541026,-1.2875506099951286,0.4563983243081045,0.03593262450537767,0.03593262450537767,-1.2875506099951286,-1.170500554541026,0,1,1,0,-1.170500554541026,-1.2875506099951286
14,1,15,46,110,124,1,3907.246,4,1461.971,LESS,-660,2542,1882,5,1,14.0,1.3123718449442827,14.0,0.8730378697119728,-3.2122692453606816,0.9392199687671416,234,110,124,1,1.4759320336549415,1.170500554541026,1.7167341466601715,2.1678920404634967,-0.2460984626752578,0.2460984626752578,1.7167341466601715,1.170500554541026,0,1,1,2,1.7167341466601715,1.170500554541026
15,1,16,27,91,80,1,3482.062,64,2540.283,LESS,-660,2246,1586,4,1,-11.0,-1.0311493067419364,11.0,0.34921514788478913,-0.1256098877473213,0.5923105632368872,171,91,80,0,0.21939530230005888,0.4291835366650429,0.0,1.3121451823858008,-0.2460984626752578,0.2460984626752578,0.0,0.4291835366650429,0,1,1,1,0.4291835366650429,0.0
16,1,17,40,64,80,0,1823.377,74,2167.7470000000008,LESS,-750,1256,506,2,1,16.0,1.4998535370791803,16.0,1.222253017596762,0.38883333852157215,-0.7610174719477614,144,64,80,1,-0.3191204397091766,-0.6242669624218805,0.0,-0.3993485337695917,-0.3555070740815388,0.3555070740815388,0.0,-0.6242669624218805,1,0,0,1,-0.6242669624218805,0.0
17,1,18,22,83,80,0,5111.944,64,1821.922,LESS,-1778,3340,1562,4,2,-3.0,-0.28122253820234633,3.0,-1.0476454436543674,-0.1256098877473213,1.9221381101447248,163,83,80,0,0.05983508244547061,0.1170500554541026,0.0,1.3121451823858008,-1.6051965465888374,1.6051965465888374,0.0,0.1170500554541026,0,1,0,1,0.1170500554541026,0.0
18,1,19,54,101,110,0,4920.474,54,3188.875,LESS,-2694,3968,1274,4,1,9.0,0.8436676146070391,9.0,0.0,-0.6400531140162148,1.7659169356017552,211,101,110,1,1.0171964015730004,0.8193503881787182,1.170500554541026,1.3121451823858008,-2.7187330804572083,2.7187330804572083,1.170500554541026,0.8193503881787182,0,1,0,2,1.170500554541026,0.8193503881787182
19,1,20,6,56,50,0,1869.935,54,1348.091,LESS,-620,1160,540,2,1,-6.0,-0.5624450764046927,6.0,-0.5238227218271837,-0.6400531140162148,-0.7230306048439251,106,56,50,0,-1.077031484018471,-0.9364004436328208,-1.170500554541026,-0.3993485337695917,-0.19747241316135514,0.19747241316135514,-1.170500554541026,-0.9364004436328208,0,1,1,0,-0.9364004436328208,-1.170500554541026
20,1,21,18,50,42,0,1705.811,84,1299.314,LESS,20,1130,1150,2,2,-8.0,-0.7499267685395902,8.0,-0.17460757394239454,0.9032765647904656,-0.8569400635094614,92,50,42,0,-1.3562618687640005,-1.170500554541026,-1.4826340357519663,-0.3993485337695917,0.5805443790610876,0.5805443790610876,-1.4826340357519663,-1.170500554541026,1,0,1,0,-1.170500554541026,-1.4826340357519663
21,1,22,43,110,117,0,3083.54,54,2248.677,LESS,-1634,2252,618,2,1,7.0,0.6561859224721414,7.0,-0.34921514788478913,-0.6400531140162148,0.2671547951206648,227,110,117,1,1.3363168412821769,1.170500554541026,1.4436173506005987,-0.3993485337695917,-1.4301427683387877,1.4301427683387877,1.4436173506005987,1.170500554541026,0,0,0,2,1.4436173506005987,1.170500554541026
22,1,23,32,77,80,0,2474.714,24,1261.502,LESS,-1258,1954,696,2,1,3.0,0.28122253820234633,3.0,-1.0476454436543674,-2.1833827928228957,-0.22958888698252475,157,77,80,1,-0.05983508244547061,-0.1170500554541026,0.0,-0.3993485337695917,-0.9730579029081027,0.9730579029081027,0.0,-0.1170500554541026,0,1,0,1,-0.1170500554541026,0.0
23,1,24,27,80,91,0,2272.349,74,1373.872,LESS,-728,1536,808,2,1,11.0,1.0311493067419364,11.0,0.34921514788478913,0.38883333852157215,-0.3946993376347831,171,80,91,1,0.21939530230005888,0.0,0.4291835366650429,-0.3993485337695917,-0.32876274684889234,0.32876274684889234,0.4291835366650429,0.0,1,0,0,1,0.4291835366650429,0.0
24,1,25,16,44,50,0,3790.48,64,2175.914,LESS,-616,1952,1336,4,1,6.0,0.5624450764046927,6.0,-0.5238227218271837,-0.1256098877473213,0.8439501005544485,94,44,50,1,-1.3163718138003533,-1.4046006654492311,-1.170500554541026,1.3121451823858008,-0.19260980820996487,0.19260980820996487,-1.170500554541026,-1.4046006654492311,0,1,1,0,-1.4046006654492311,-1.170500554541026
25,1,26,7,50,57,0,2046.062,64,1804.283,LESS,-774,1330,556,2,1,7.0,0.6561859224721414,7.0,-0.34921514788478913,-0.1256098877473213,-0.5793278482307244,107,50,57,1,-1.0570864565366473,-1.170500554541026,-0.8973837584814532,-0.3993485337695917,-0.38468270378988045,0.38468270378988045,-0.8973837584814532,-1.170500554541026,0,0,0,0,-1.170500554541026,-0.8973837584814532
26,1,27,14,50,46,1,3822.251,64,1246.179,LESS,686,1538,2224,3,2,-4.0,-0.3749633842697951,4.0,-0.8730378697119728,-0.1256098877473213,0.8698721924560765,96,50,46,0,-1.2764817588367063,-1.170500554541026,-1.3265672951464962,0.4563983243081045,1.390168103467567,1.390168103467567,-1.3265672951464962,-1.170500554541026,0,1,1,0,-1.170500554541026,-1.3265672951464962
27,1,28,51,110,108,0,3347.54,64,1979.166,LESS,-1556,2496,940,4,1,-2.0,-0.18748169213489754,2.0,-1.222253017596762,-0.1256098877473213,0.4825535002929834,218,110,108,0,1.156811593945765,1.170500554541026,1.092467184238291,1.3121451823858008,-1.3353219717866776,1.3353219717866776,1.092467184238291,1.170500554541026,0,1,0,2,1.170500554541026,1.092467184238291
28,1,29,50,133,110,1,2252.245,54,2859.177,LESS,-236,1374,1138,1,1,-23.0,-2.1560394595513217,23.0,2.444506035193524,-0.6400531140162148,-0.41110227539532973,243,133,110,0,1.6554372809913533,2.0678843130224793,1.170500554541026,-1.2550953918472878,0.26933766217211047,0.26933766217211047,1.170500554541026,2.0678843130224793,0,0,1,2,2.0678843130224793,1.170500554541026
29,1,30,49,131,110,1,2083.424,74,1310.553,LESS,388,964,1352,1,2,-21.0,-1.9685577674164243,21.0,2.0952908873087353,0.38883333852157215,-0.5488440360237237,241,131,110,0,1.6155472260277064,1.9898509427197442,1.170500554541026,-1.2550953918472878,1.0279040345889923,1.0279040345889923,1.170500554541026,1.9898509427197442,1,0,1,2,1.9898509427197442,1.170500554541026
30,1,31,47,126,110,1,4155.502,44,1021.733,LESS,-726,2120,1394,3,2,-16.0,-1.4998535370791803,16.0,1.222253017596762,-1.1544963402851085,1.1417730784310018,236,126,110,0,1.5158220886185887,1.7947675169629065,1.170500554541026,0.4563983243081045,-0.3263314443731972,0.3263314443731972,1.170500554541026,1.7947675169629065,0,1,0,2,1.7947675169629065,1.170500554541026
31,1,32,50,110,133,0,2550.939,84,2476.876,LESS,-610,1748,1138,2,2,23.0,2.1560394595513217,23.0,2.444506035193524,0.9032765647904656,-0.1673965903849491,243,110,133,1,1.6554372809913533,1.170500554541026,2.0678843130224793,-0.3993485337695917,-0.1853159007828795,0.1853159007828795,2.0678843130224793,1.170500554541026,1,0,1,2,2.0678843130224793,1.170500554541026
32,1,33,47,110,126,0,5814.551,64,1875.655,LESS,-2620,3952,1332,3,2,16.0,1.4998535370791803,16.0,1.222253017596762,-0.1256098877473213,2.495398102739449,236,110,126,1,1.5158220886185887,1.170500554541026,1.7947675169629065,0.4563983243081045,-2.6287748888564884,2.6287748888564884,1.7947675169629065,1.170500554541026,0,1,0,2,1.7947675169629065,1.170500554541026
33,1,34,12,48,50,0,1428.2879999999998,94,3195.264,LESS,538,1024,1562,2,2,2.0,0.18748169213489754,2.0,-1.222253017596762,1.417719791059359,-1.0833722409925577,98,48,50,1,-1.2365917038730592,-1.248533924843761,-1.170500554541026,-0.3993485337695917,1.2102517202661272,1.2102517202661272,-1.170500554541026,-1.248533924843761,1,0,1,0,-1.248533924843761,-1.170500554541026
34,1,35,32,80,77,0,1743.991,84,714.693,LESS,-582,1362,780,3,2,-3.0,-0.28122253820234633,3.0,-1.0476454436543674,0.9032765647904656,-0.8257888416781011,157,80,77,0,-0.05983508244547061,0.0,-0.1170500554541026,0.4563983243081045,-0.1512776661231476,0.1512776661231476,-0.1170500554541026,0.0,1,1,1,1,0.0,-0.1170500554541026
35,1,36,43,117,110,1,2329.644,34,2402.523,LESS,-514,1568,1054,3,1,-7.0,-0.6561859224721414,7.0,-0.34921514788478913,-1.6689395665540017,-0.34795210728308645,227,117,110,0,1.3363168412821769,1.4436173506005987,1.170500554541026,0.4563983243081045,-0.06861338194951308,0.06861338194951308,1.170500554541026,1.4436173506005987,0,1,1,2,1.4436173506005987,1.170500554541026
36,1,37,40,80,64,1,3381.75,74,1358.669,LESS,-252,1750,1498,3,2,-16.0,-1.4998535370791803,16.0,1.222253017596762,0.38883333852157215,0.5104655825048964,144,80,64,0,-0.3191204397091766,0.0,-0.6242669624218805,0.4563983243081045,0.2498872423665494,0.2498872423665494,-0.6242669624218805,0.0,1,1,1,1,0.0,-0.6242669624218805
37,1,38,31,80,78,0,2209.993,34,1186.315,LESS,-956,1456,500,2,1,-2.0,-0.18748169213489754,2.0,-1.222253017596762,-1.6689395665540017,-0.4455758590731359,158,80,78,0,-0.03989005496364707,0.0,-0.07803337030273506,-0.3993485337695917,-0.6059312290781376,0.6059312290781376,-0.07803337030273506,0.0,0,0,0,1,0.0,-0.07803337030273506
38,1,39,46,124,110,1,3602.313,64,1465.37,LESS,390,1444,1834,3,2,-14.0,-1.3123718449442827,14.0,0.8730378697119728,-0.1256098877473213,0.6904238575386923,234,124,110,0,1.4759320336549415,1.7167341466601715,1.170500554541026,0.4563983243081045,1.0303353370646873,1.0303353370646873,1.170500554541026,1.7167341466601715,0,1,1,2,1.7167341466601715,1.170500554541026
39,1,40,58,92,110,0,2506.099,84,3023.266,LESS,-294,1550,1256,2,2,18.0,1.6873352292140782,18.0,1.571468165481551,0.9032765647904656,-0.20398173409679268,202,92,110,1,0.8376911542365885,0.4682002218164104,1.170500554541026,-0.3993485337695917,0.19882989037695162,0.19882989037695162,1.170500554541026,0.4682002218164104,1,0,1,2,1.170500554541026,0.4682002218164104
40,1,41,49,110,131,1,1734.284,74,2314.899,MORE,-92,726,634,0,2,21.0,1.9685577674164243,21.0,2.0952908873087353,0.38883333852157215,-0.8337088236141149,241,110,131,0,1.6155472260277064,1.170500554541026,1.9898509427197442,-2.110842249924984,0.4443914404221601,0.4443914404221601,1.9898509427197442,1.170500554541026,1,0,1,2,1.9898509427197442,1.170500554541026
41,1,42,13,47,50,0,6555.37,64,2919.419000000001,MORE,-3882,5110,1228,4,1,3.0,0.28122253820234633,3.0,-1.0476454436543674,-0.1256098877473213,3.0998354260994936,97,47,50,0,-1.2565367313548828,-1.2875506099951286,-1.170500554541026,1.3121451823858008,-4.162926751020118,4.162926751020118,-1.170500554541026,-1.2875506099951286,0,1,0,0,-1.2875506099951286,-1.170500554541026
42,1,43,16,50,44,0,3174.566,64,1513.1989999999996,MORE,-638,1764,1126,4,1,-6.0,-0.5624450764046927,6.0,-0.5238227218271837,-0.1256098877473213,0.3414232895790566,94,50,44,1,-1.3163718138003533,-1.170500554541026,-1.4046006654492311,1.3121451823858008,-0.21935413544261134,0.21935413544261134,-1.4046006654492311,-1.170500554541026,0,1,0,0,-1.170500554541026,-1.4046006654492311
43,1,44,7,57,50,1,2877.579,74,1177.6760000000004,MORE,-352,1472,1120,3,2,-7.0,-0.6561859224721414,7.0,-0.34921514788478913,0.38883333852157215,0.09911035301461986,107,57,50,1,-1.0570864565366473,-0.8973837584814532,-1.170500554541026,0.4563983243081045,0.12832211858179274,0.12832211858179274,-1.170500554541026,-0.8973837584814532,1,1,0,0,-0.8973837584814532,-1.170500554541026
44,1,45,18,42,50,1,1806.31,54,1375.2279999999996,MORE,194,772,966,1,2,8.0,0.7499267685395902,8.0,-0.17460757394239454,-0.6400531140162148,-0.77494250869464,92,42,50,0,-1.3562618687640005,-1.4826340357519663,-1.170500554541026,-1.2550953918472878,0.7920676944465642,0.7920676944465642,-1.170500554541026,-1.4826340357519663,0,0,1,0,-1.4826340357519663,-1.170500554541026
45,1,46,51,108,110,0,3636.816,64,1251.974,MORE,-686,1854,1168,3,1,2.0,0.18748169213489754,2.0,-1.222253017596762,-0.1256098877473213,0.7185749996771787,218,108,110,0,1.156811593945765,1.092467184238291,1.170500554541026,0.4563983243081045,-0.2777053948592946,0.2777053948592946,1.170500554541026,1.092467184238291,0,1,0,2,1.170500554541026,1.092467184238291
46,1,47,31,78,80,1,3650.266,100,1077.556,MORE,24,2008,2032,1,2,2.0,0.18748169213489754,2.0,-1.222253017596762,1.7263857268206952,0.7295489109823596,158,78,80,0,-0.03989005496364707,-0.07803337030273506,0.0,-1.2550953918472878,0.5854069840124778,0.5854069840124778,0.0,-0.07803337030273506,1,0,1,1,-0.07803337030273506,0.0
47,1,48,58,110,92,0,3078.223,74,1222.433,MORE,-364,1728,1364,4,1,-18.0,-1.6873352292140782,18.0,1.571468165481551,0.38883333852157215,0.26281663256232685,202,110,92,1,0.8376911542365885,1.170500554541026,0.4682002218164104,1.3121451823858008,0.11373430372762193,0.11373430372762193,0.4682002218164104,1.170500554541026,1,1,0,2,1.170500554541026,0.4682002218164104
48,1,49,12,50,48,1,1259.268,94,1471.1989999999996,MORE,946,466,1412,1,2,-2.0,-0.18748169213489754,2.0,-1.222253017596762,1.417719791059359,-1.2212763665540167,98,50,48,1,-1.2365917038730592,-1.170500554541026,-1.248533924843761,-1.2550953918472878,1.7062374253079344,1.7062374253079344,-1.248533924843761,-1.170500554541026,1,0,1,0,-1.170500554541026,-1.248533924843761
49,1,50,54,110,101,0,3440.738,24,2589.771,MORE,-1738,2902,1164,4,1,-9.0,-0.8436676146070391,9.0,0.0,-2.1833827928228957,0.5585941386439293,211,110,101,1,1.0171964015730004,1.170500554541026,0.8193503881787182,1.3121451823858008,-1.5565704970749348,1.5565704970749348,0.8193503881787182,1.170500554541026,0,1,0,2,1.170500554541026,0.8193503881787182
50,1,51,14,46,50,1,5698.026999999999,44,1077.134,MORE,-290,1972,1682,3,2,4.0,0.3749633842697951,4.0,-0.8730378697119728,-1.1544963402851085,2.4003256833398297,96,46,50,0,-1.2764817588367063,-1.3265672951464962,-1.170500554541026,0.4563983243081045,0.20369249532834188,0.20369249532834188,-1.170500554541026,-1.3265672951464962,0,1,1,0,-1.3265672951464962,-1.170500554541026
51,1,52,22,80,83,1,8224.466999999999,64,1717.749,MORE,-1804,4458,2654,7,2,3.0,0.28122253820234633,3.0,-1.0476454436543674,-0.1256098877473213,4.461658655671466,163,80,83,0,0.05983508244547061,0.0,0.1170500554541026,3.8793857566188894,-1.636803478772874,1.636803478772874,0.1170500554541026,0.0,0,1,0,1,0.1170500554541026,0.0
52,1,53,6,50,56,1,2626.168,64,2225.933,MORE,-434,1480,1046,3,2,6.0,0.5624450764046927,6.0,-0.5238227218271837,-0.1256098877473213,-0.10601693435688696,106,50,56,0,-1.077031484018471,-1.170500554541026,-0.9364004436328208,0.4563983243081045,0.028638717078292266,0.028638717078292266,-0.9364004436328208,-1.170500554541026,0,1,0,0,-1.170500554541026,-0.9364004436328208
53,1,54,13,50,47,0,1991.413,34,929.111,MORE,-994,1494,500,2,1,-3.0,-0.28122253820234633,3.0,-1.0476454436543674,-1.6689395665540017,-0.6239161961055806,97,50,47,1,-1.2565367313548828,-1.170500554541026,-1.2875506099951286,-0.3993485337695917,-0.652125976116345,0.652125976116345,-1.2875506099951286,-1.170500554541026,0,1,0,0,-1.170500554541026,-1.2875506099951286
54,1,55,46,110,124,1,1671.149,64,893.164,MORE,432,654,1086,1,2,14.0,1.3123718449442827,14.0,0.8730378697119728,-0.1256098877473213,-0.8852209344135633,234,110,124,0,1.4759320336549415,1.170500554541026,1.7167341466601715,-1.2550953918472878,1.081392689054285,1.081392689054285,1.7167341466601715,1.170500554541026,0,0,1,2,1.7167341466601715,1.170500554541026
55,1,56,27,91,80,0,2607.607,54,1793.0870000000002,MORE,-1654,2206,552,2,1,-11.0,-1.0311493067419364,11.0,0.34921514788478913,-0.6400531140162148,-0.12116093195803633,171,91,80,1,0.21939530230005888,0.4291835366650429,0.0,-0.3993485337695917,-1.4544557930957391,1.4544557930957391,0.0,0.4291835366650429,0,1,0,1,0.4291835366650429,0.0
56,1,57,40,64,80,1,1527.826,100,813.322,MORE,758,562,1320,1,2,16.0,1.4998535370791803,16.0,1.222253017596762,1.7263857268206952,-1.0021587701007306,144,64,80,0,-0.3191204397091766,-0.6242669624218805,0.0,-1.2550953918472878,1.477694992592592,1.477694992592592,0.0,-0.6242669624218805,1,0,1,1,-0.6242669624218805,0.0
57,1,58,22,83,80,0,5043.16,64,1399.128,MORE,-526,2494,1968,6,1,-3.0,-0.28122253820234633,3.0,-1.0476454436543674,-0.1256098877473213,1.8660169565971,163,83,80,1,0.05983508244547061,0.1170500554541026,0.0,3.023638898541193,-0.08320119680368387,0.08320119680368387,0.0,0.1170500554541026,0,1,0,1,0.1170500554541026,0.0
58,1,59,54,101,110,1,2267.665,34,986.77,MORE,142,996,1138,1,2,9.0,0.8436676146070391,9.0,0.0,-1.6689395665540017,-0.3985210328432194,211,101,110,0,1.0171964015730004,0.8193503881787182,1.170500554541026,-1.2550953918472878,0.7288538300784908,0.7288538300784908,1.170500554541026,0.8193503881787182,0,0,1,2,1.170500554541026,0.8193503881787182
59,1,60,6,56,50,0,4499.543,74,1357.733,MORE,-1232,2734,1502,4,2,-6.0,-0.5624450764046927,6.0,-0.5238227218271837,0.38883333852157215,1.4224775705756594,106,56,50,1,-1.077031484018471,-0.9364004436328208,-1.170500554541026,1.3121451823858008,-0.9414509707240659,0.9414509707240659,-1.170500554541026,-0.9364004436328208,1,1,0,0,-0.9364004436328208,-1.170500554541026
60,1,61,18,50,42,0,5571.061,74,991.395,MORE,-696,2884,2188,4,2,-8.0,-0.7499267685395902,8.0,-0.17460757394239454,0.38883333852157215,2.2967335924272976,92,50,42,1,-1.3562618687640005,-1.170500554541026,-1.4826340357519663,1.3121451823858008,-0.2898619072377702,0.2898619072377702,-1.4826340357519663,-1.170500554541026,1,1,0,0,-1.170500554541026,-1.4826340357519663
61,1,62,43,110,117,1,2045.641,84,1732.67,MORE,556,1108,1664,1,2,7.0,0.6561859224721414,7.0,-0.34921514788478913,0.9032765647904656,-0.5796713438931392,227,110,117,0,1.3363168412821769,1.170500554541026,1.4436173506005987,-1.2550953918472878,1.2321334425473833,1.2321334425473833,1.4436173506005987,1.170500554541026,1,0,1,2,1.4436173506005987,1.170500554541026
62,1,63,32,77,80,1,1402.112,64,2053.806,MORE,518,482,1000,1,2,3.0,0.28122253820234633,3.0,-1.0476454436543674,-0.1256098877473213,-1.104729348972067,157,77,80,0,-0.05983508244547061,-0.1170500554541026,0.0,-1.2550953918472878,1.185938695509176,1.185938695509176,0.0,-0.1170500554541026,0,0,1,1,-0.1170500554541026,0.0
63,1,64,27,80,91,1,2736.625,74,1971.489,MORE,190,1316,1506,3,2,11.0,1.0311493067419364,11.0,0.34921514788478913,0.38883333852157215,-0.015894605655300712,171,80,91,0,0.21939530230005888,0.0,0.4291835366650429,0.4563983243081045,0.787205089495174,0.787205089495174,0.4291835366650429,0.0,1,1,1,1,0.4291835366650429,0.0
64,1,65,16,44,50,1,2065.604,64,2403.31,MORE,294,818,1112,0,2,6.0,0.5624450764046927,6.0,-0.5238227218271837,-0.1256098877473213,-0.5633834486228554,94,44,50,0,-1.3163718138003533,-1.4046006654492311,-1.170500554541026,-2.110842249924984,0.9136328182313209,0.9136328182313209,-1.170500554541026,-1.4046006654492311,0,0,1,0,-1.4046006654492311,-1.170500554541026
65,1,66,7,50,57,1,3058.203,64,1657.954,MORE,-6,1416,1410,3,2,7.0,0.6561859224721414,7.0,-0.34921514788478913,-0.1256098877473213,0.24648223075342604,107,50,57,0,-1.0570864565366473,-1.170500554541026,-0.8973837584814532,0.4563983243081045,0.5489374468770508,0.5489374468770508,-0.8973837584814532,-1.170500554541026,0,1,1,0,-1.170500554541026,-0.8973837584814532
66,1,67,14,50,46,1,1613.454,64,1014.648,MORE,358,608,966,1,2,-4.0,-0.3749633842697951,4.0,-0.8730378697119728,-0.1256098877473213,-0.9322945264397636,96,50,46,1,-1.2764817588367063,-1.170500554541026,-1.3265672951464962,-1.2550953918472878,0.9914344974535652,0.9914344974535652,-1.3265672951464962,-1.170500554541026,0,0,1,0,-1.170500554541026,-1.3265672951464962
67,1,68,51,110,108,1,1931.482,84,1086.543,MORE,460,998,1458,1,2,-2.0,-0.18748169213489754,2.0,-1.222253017596762,0.9032765647904656,-0.6728141498922556,218,110,108,1,1.156811593945765,1.170500554541026,1.092467184238291,-1.2550953918472878,1.115430923714017,1.115430923714017,1.092467184238291,1.170500554541026,1,0,1,2,1.170500554541026,1.092467184238291
68,1,69,50,133,110,0,4895.517,74,964.583,MORE,-1858,3392,1534,4,2,-23.0,-2.1560394595513217,23.0,2.444506035193524,0.38883333852157215,1.7455544148252946,243,133,110,1,1.6554372809913533,2.0678843130224793,1.170500554541026,1.3121451823858008,-1.7024486456166428,1.7024486456166428,1.170500554541026,2.0678843130224793,1,1,0,2,2.0678843130224793,1.170500554541026
69,1,70,49,131,110,1,3197.86,34,1226.561,MORE,-104,1512,1408,2,2,-21.0,-1.9685577674164243,21.0,2.0952908873087353,-1.6689395665540017,0.3604289616937689,241,131,110,1,1.6155472260277064,1.9898509427197442,1.170500554541026,-0.3993485337695917,0.4298036255679893,0.4298036255679893,1.170500554541026,1.9898509427197442,0,0,1,2,1.9898509427197442,1.170500554541026
70,1,71,47,126,110,1,2000.688,64,1976.766,MORE,1668,814,2482,1,2,-16.0,-1.4998535370791803,16.0,1.222253017596762,-0.1256098877473213,-0.6163486847780303,236,126,110,1,1.5158220886185887,1.7947675169629065,1.170500554541026,-1.2550953918472878,2.5839376190338776,2.5839376190338776,1.170500554541026,1.7947675169629065,0,0,1,2,1.7947675169629065,1.170500554541026
71,1,72,50,110,133,1,1921.251,94,1085.583,MORE,388,902,1290,1,2,23.0,2.1560394595513217,23.0,2.444506035193524,1.417719791059359,-0.6811616656218692,243,110,133,0,1.6554372809913533,1.170500554541026,2.0678843130224793,-1.2550953918472878,1.0279040345889923,1.0279040345889923,2.0678843130224793,1.170500554541026,1,0,1,2,2.0678843130224793,1.170500554541026
72,1,73,47,110,126,1,2050.4970000000008,94,671.347,MORE,400,986,1386,1,2,16.0,1.4998535370791803,16.0,1.222253017596762,1.417719791059359,-0.575709313164666,236,110,126,0,1.5158220886185887,1.170500554541026,1.7947675169629065,-1.2550953918472878,1.042491849443163,1.042491849443163,1.7947675169629065,1.170500554541026,1,0,1,2,1.7947675169629065,1.170500554541026
73,1,74,12,48,50,1,2219.756,64,947.498,MORE,1160,504,1664,1,2,2.0,0.18748169213489754,2.0,-1.222253017596762,-0.1256098877473213,-0.43761018650269146,98,48,50,0,-1.2365917038730592,-1.248533924843761,-1.170500554541026,-1.2550953918472878,1.9663867902073138,1.9663867902073138,-1.170500554541026,-1.248533924843761,0,0,1,0,-1.248533924843761,-1.170500554541026
74,1,75,32,80,77,1,1635.473,34,1756.646,MORE,298,644,942,0,2,-3.0,-0.28122253820234633,3.0,-1.0476454436543674,-1.6689395665540017,-0.9143291321625316,157,80,77,1,-0.05983508244547061,0.0,-0.1170500554541026,-2.110842249924984,0.9184954231827112,0.9184954231827112,-0.1170500554541026,0.0,0,0,1,1,0.0,-0.1170500554541026
75,1,76,43,117,110,0,5608.432,64,1783.309,MORE,-674,2874,2200,6,1,-7.0,-0.6561859224721414,7.0,-0.34921514788478913,-0.1256098877473213,2.3272247477719743,227,117,110,1,1.3363168412821769,1.4436173506005987,1.170500554541026,3.023638898541193,-0.26311758000512375,0.26311758000512375,1.170500554541026,1.4436173506005987,0,1,0,2,1.4436173506005987,1.170500554541026
76,1,77,40,80,64,0,4443.018,34,914.203,MORE,-1002,2624,1622,4,1,-16.0,-1.4998535370791803,16.0,1.222253017596762,-1.6689395665540017,1.376358586447382,144,80,64,1,-0.3191204397091766,0.0,-0.6242669624218805,1.3121451823858008,-0.6618511860191256,0.6618511860191256,-0.6242669624218805,0.0,0,1,0,1,0.0,-0.6242669624218805
77,1,78,31,80,78,1,2620.927,100,1013.713,MORE,408,1098,1506,3,2,-2.0,-0.18748169213489754,2.0,-1.222253017596762,1.7263857268206952,-0.11029308819706922,158,80,78,1,-0.03989005496364707,0.0,-0.07803337030273506,0.4563983243081045,1.0522170593459435,1.0522170593459435,-0.07803337030273506,0.0,1,1,1,1,0.0,-0.07803337030273506
78,1,79,46,124,110,1,1725.9029999999998,64,2174.1620000000007,MORE,-200,1128,928,1,1,-14.0,-1.3123718449442827,14.0,0.8730378697119728,-0.1256098877473213,-0.84054691659915,234,124,110,1,1.4759320336549415,1.7167341466601715,1.170500554541026,-1.2550953918472878,0.3131011067346229,0.3131011067346229,1.170500554541026,1.7167341466601715,0,0,1,2,1.7167341466601715,1.170500554541026
79,1,80,58,92,110,1,3225.23,54,1560.319,MORE,-480,1938,1458,3,1,18.0,1.6873352292140782,18.0,1.571468165481551,-0.6400531140162148,0.3827602592716717,202,92,110,0,0.8376911542365885,0.4682002218164104,1.170500554541026,0.4563983243081045,-0.027281239862695806,0.027281239862695806,1.170500554541026,0.4682002218164104,0,1,0,2,1.170500554541026,0.4682002218164104
80,1,81,48,128,110,1,7964.300999999998,54,1952.117,LESS,-734,3890,3156,4,1,-18.0,-1.6873352292140782,18.0,1.571468165481551,-0.6400531140162148,4.249388127149263,238,128,110,0,1.5557121435822359,1.8728008872656416,1.170500554541026,1.3121451823858008,-0.33605665427597775,0.33605665427597775,1.170500554541026,1.8728008872656416,0,1,0,2,1.8728008872656416,1.170500554541026
81,1,82,8,50,58,0,1743.8239999999996,64,2343.446,LESS,-960,1426,466,2,1,8.0,0.7499267685395902,8.0,-0.17460757394239454,-0.1256098877473213,-0.8259250976772066,108,50,58,1,-1.0371414290548238,-1.170500554541026,-0.8583670733300858,-0.3993485337695917,-0.6107938340295278,0.6107938340295278,-0.8583670733300858,-1.170500554541026,1,0,0,0,-1.170500554541026,-0.8583670733300858
82,1,83,4,54,50,0,2122.334,54,1286.756,LESS,-1186,1716,530,2,1,-4.0,-0.3749633842697951,4.0,-0.8730378697119728,-0.6400531140162148,-0.5170972041363946,104,54,50,0,-1.116921538982118,-1.0144338139355558,-1.170500554541026,-0.3993485337695917,-0.8855310137830779,0.8855310137830779,-1.170500554541026,-1.0144338139355558,0,0,0,0,-1.0144338139355558,-1.170500554541026
83,1,84,37,80,69,1,2518.011,84,2851.118,LESS,212,1776,1988,3,2,-11.0,-1.0311493067419364,11.0,0.34921514788478913,0.9032765647904656,-0.1942626834300782,149,80,69,0,-0.21939530230005888,0.0,-0.4291835366650429,0.4563983243081045,0.8139494167278204,0.8139494167278204,-0.4291835366650429,0.0,1,1,1,1,0.0,-0.4291835366650429
84,1,85,52,105,110,0,2201.475,64,1874.471,LESS,-944,1712,768,2,1,5.0,0.4687042303372438,5.0,-0.6984302957695783,-0.1256098877473213,-0.4525257309316882,215,105,110,1,1.0969765115002945,0.9754171287841883,1.170500554541026,-0.3993485337695917,-0.5913434142239667,0.5913434142239667,1.170500554541026,0.9754171287841883,1,0,0,2,1.170500554541026,0.9754171287841883
85,1,86,5,55,50,0,2131.478,64,1083.81,LESS,-634,1302,668,2,1,-5.0,-0.4687042303372438,5.0,-0.6984302957695783,-0.1256098877473213,-0.5096365762572441,105,55,50,0,-1.0969765115002945,-0.9754171287841883,-1.170500554541026,-0.3993485337695917,-0.21449153049122108,0.21449153049122108,-1.170500554541026,-0.9754171287841883,1,0,1,0,-0.9754171287841883,-1.170500554541026
86,1,87,30,96,80,0,2017.429,4,1183.942,LESS,-1858,2362,504,2,1,-16.0,-1.4998535370791803,16.0,1.222253017596762,-3.2122692453606816,-0.6026896327958721,176,96,80,0,0.3191204397091766,0.6242669624218805,0.0,-0.3993485337695917,-1.7024486456166428,1.7024486456166428,0.0,0.6242669624218805,0,0,0,1,0.6242669624218805,0.0
87,1,88,33,80,75,1,3241.381,64,1875.688,LESS,712,1180,1892,3,2,-5.0,-0.4687042303372438,5.0,-0.6984302957695783,-0.1256098877473213,0.3959379277839372,155,80,75,0,-0.09972513740911768,0.0,-0.19508342575683765,0.4563983243081045,1.421775035651604,1.421775035651604,-0.19508342575683765,0.0,1,1,1,1,0.0,-0.19508342575683765
88,1,89,48,110,128,0,2528.386,64,1824.788,LESS,-1444,2070,626,2,1,18.0,1.6873352292140782,18.0,1.571468165481551,-0.1256098877473213,-0.18579767749764334,238,110,128,1,1.5557121435822359,1.170500554541026,1.8728008872656416,-0.3993485337695917,-1.19916903314775,1.19916903314775,1.8728008872656416,1.170500554541026,0,0,0,2,1.8728008872656416,1.170500554541026
89,1,90,9,59,50,1,1679.8729999999996,64,1211.035,LESS,444,628,1072,1,2,-9.0,-0.8436676146070391,9.0,0.0,-0.1256098877473213,-0.8781029862926419,109,59,50,0,-1.0171964015730004,-0.8193503881787182,-1.170500554541026,-1.2550953918472878,1.095980503908456,1.095980503908456,-1.170500554541026,-0.8193503881787182,0,0,1,0,-0.8193503881787182,-1.170500554541026
90,1,91,44,110,119,0,1513.221,24,1929.333,LESS,-672,1086,414,2,1,9.0,0.8436676146070391,9.0,0.0,-2.1833827928228957,-1.0140750507410403,229,110,119,1,1.376206896245824,1.170500554541026,1.5216507209033339,-0.3993485337695917,-0.26068627752942863,0.26068627752942863,1.5216507209033339,1.170500554541026,0,0,0,2,1.5216507209033339,1.170500554541026
91,1,92,2,52,50,1,3359.407,74,1520.963,LESS,974,1046,2020,3,2,-2.0,-0.18748169213489754,2.0,-1.222253017596762,0.38883333852157215,0.4922358352713165,102,52,50,0,-1.156811593945765,-1.092467184238291,-1.170500554541026,0.4563983243081045,1.7402756599676663,1.7402756599676663,-1.170500554541026,-1.092467184238291,1,1,1,0,-1.092467184238291,-1.170500554541026
92,1,93,8,58,50,0,3815.203,74,1109.56,LESS,-556,2110,1554,4,2,-8.0,-0.7499267685395902,8.0,-0.17460757394239454,0.38883333852157215,0.8641216997513244,108,58,50,0,-1.0371414290548238,-0.8583670733300858,-1.170500554541026,1.3121451823858008,-0.11967073393911087,0.11967073393911087,-1.170500554541026,-0.8583670733300858,1,1,1,0,-0.8583670733300858,-1.170500554541026
93,1,94,44,119,110,0,4747.633,24,1125.921,LESS,98,2082,2180,4,1,-9.0,-0.8436676146070391,9.0,0.0,-2.1833827928228957,1.6248952401446008,229,119,110,0,1.376206896245824,1.5216507209033339,1.170500554541026,1.3121451823858008,0.6753651756131979,0.6753651756131979,1.170500554541026,1.5216507209033339,0,1,1,2,1.5216507209033339,1.170500554541026
94,1,95,34,74,80,0,3013.6240000000007,100,1360.27,LESS,882,1144,2026,3,2,6.0,0.5624450764046927,6.0,-0.5238227218271837,1.7263857268206952,0.2101100380341964,154,74,80,1,-0.11967016489094122,-0.2341001109082052,0.0,0.4563983243081045,1.6284357460856902,1.6284357460856902,0.0,-0.2341001109082052,1,1,1,1,-0.2341001109082052,0.0
95,1,96,24,86,80,0,3695.847,74,2038.684,LESS,-376,2298,1922,5,2,-6.0,-0.5624450764046927,6.0,-0.5238227218271837,0.38883333852157215,0.7667386396962214,166,86,80,0,0.11967016489094122,0.2341001109082052,0.0,2.1678920404634967,0.09914648887345114,0.09914648887345114,0.0,0.2341001109082052,1,1,1,1,0.2341001109082052,0.0
96,1,97,39,66,80,0,1818.684,74,1972.947,LESS,-730,1246,516,2,1,14.0,1.3123718449442827,14.0,0.8730378697119728,0.38883333852157215,-0.7648465102938738,146,66,80,1,-0.2792303847455295,-0.5462335921191455,0.0,-0.3993485337695917,-0.3311940493245875,0.3311940493245875,0.0,-0.5462335921191455,1,0,0,1,-0.5462335921191455,0.0
97,1,98,9,50,59,0,3040.837,74,1288.515,LESS,-1704,2296,592,2,2,9.0,0.8436676146070391,9.0,0.0,0.38883333852157215,0.232313238654856,109,50,59,1,-1.0171964015730004,-1.170500554541026,-0.8193503881787182,-0.3993485337695917,-1.5152383549881174,1.5152383549881174,-0.8193503881787182,-1.170500554541026,1,0,0,0,-1.170500554541026,-0.8193503881787182
98,1,99,57,94,110,0,3156.807,100,1195.264,LESS,-1062,2242,1180,1,2,16.0,1.4998535370791803,16.0,1.222253017596762,1.7263857268206952,0.3269336471352869,204,94,110,1,0.8775812092002355,0.5462335921191455,1.170500554541026,-1.2550953918472878,-0.7347902602899796,0.7347902602899796,1.170500554541026,0.5462335921191455,1,0,0,2,1.170500554541026,0.5462335921191455
99,1,100,60,110,87,1,5926.643,94,1651.2089999999996,LESS,-950,3560,2610,3,2,-23.0,-2.1560394595513217,23.0,2.444506035193524,1.417719791059359,2.586854434785568,197,110,87,0,0.7379660168274708,1.170500554541026,0.27311679605957273,0.4563983243081045,-0.5986373216510522,0.5986373216510522,0.27311679605957273,1.170500554541026,1,1,0,2,1.170500554541026,0.27311679605957273
100,1,101,33,75,80,1,4156.099,94,1382.8929999999998,LESS,1626,1500,3126,3,2,5.0,0.4687042303372438,5.0,-0.6984302957695783,1.417719791059359,1.1422601732301985,155,75,80,1,-0.09972513740911768,-0.19508342575683765,0.0,0.4563983243081045,2.53288026704428,2.53288026704428,0.0,-0.19508342575683765,1,1,1,1,-0.19508342575683765,0.0
101,1,102,15,50,45,1,2333.893,64,2767.159,LESS,-698,1704,1006,3,1,-5.0,-0.4687042303372438,5.0,-0.6984302957695783,-0.1256098877473213,-0.3444853303956727,95,50,45,0,-1.2964267863185297,-1.170500554541026,-1.3655839802978638,0.4563983243081045,-0.29229320971346534,0.29229320971346534,-1.3655839802978638,-1.170500554541026,0,1,0,0,-1.170500554541026,-1.3655839802978638
102,1,103,59,89,110,0,2362.993,84,1411.2120000000002,LESS,966,832,1798,3,2,21.0,1.9685577674164243,21.0,2.0952908873087353,0.9032765647904656,-0.3207425185755422,199,89,110,1,0.7778560717911179,0.3511501663623078,1.170500554541026,0.4563983243081045,1.7305504500648858,1.7305504500648858,1.170500554541026,0.3511501663623078,1,1,1,2,1.170500554541026,0.3511501663623078
103,1,104,29,80,94,0,1705.088,54,1625.9920000000004,LESS,-128,1012,884,1,1,14.0,1.3123718449442827,14.0,0.8730378697119728,-0.6400531140162148,-0.8575299622361264,174,80,94,1,0.2792303847455295,0.0,0.5462335921191455,-1.2550953918472878,0.4006279958596477,0.4006279958596477,0.5462335921191455,0.0,0,0,1,1,0.5462335921191455,0.0
104,1,105,55,110,98,1,1720.385,64,1479.807,LESS,-840,1380,540,2,1,-12.0,-1.124890152809385,12.0,0.5238227218271837,-0.1256098877473213,-0.8450490758989259,208,110,98,0,0.9573613191275298,1.170500554541026,0.7023003327246156,-0.3993485337695917,-0.4649156854878198,0.4649156854878198,0.7023003327246156,1.170500554541026,0,0,0,2,1.170500554541026,0.7023003327246156
105,1,106,29,94,80,0,1728.2179999999996,24,1289.573,LESS,-586,1148,562,2,1,-14.0,-1.3123718449442827,14.0,0.8730378697119728,-2.1833827928228957,-0.8386580984079611,174,94,80,0,0.2792303847455295,0.5462335921191455,0.0,-0.3993485337695917,-0.15614027107453787,0.15614027107453787,0.0,0.5462335921191455,0,0,1,1,0.5462335921191455,0.0
106,1,107,57,110,94,1,2498.348,64,1178.775,LESS,-44,1216,1172,3,2,-16.0,-1.4998535370791803,16.0,1.222253017596762,-0.1256098877473213,-0.21030580744448465,204,110,94,0,0.8775812092002355,1.170500554541026,0.5462335921191455,0.4563983243081045,0.5027426998388433,0.5027426998388433,0.5462335921191455,1.170500554541026,0,1,1,2,1.170500554541026,0.5462335921191455
107,1,108,39,80,66,1,3240.4590000000007,54,1331.467,LESS,664,1148,1812,3,2,-14.0,-1.3123718449442827,14.0,0.8730378697119728,-0.6400531140162148,0.3951856641242073,146,80,66,0,-0.2792303847455295,0.0,-0.5462335921191455,0.4563983243081045,1.3634237762349206,1.3634237762349206,-0.5462335921191455,0.0,0,1,1,1,0.0,-0.5462335921191455
108,1,109,4,50,54,1,2765.97,84,1498.4129999999998,LESS,538,1174,1712,3,2,4.0,0.3749633842697951,4.0,-0.8730378697119728,0.9032765647904656,0.008048102690463096,104,50,54,1,-1.116921538982118,-1.170500554541026,-1.0144338139355558,0.4563983243081045,1.2102517202661272,1.2102517202661272,-1.0144338139355558,-1.170500554541026,1,1,1,0,-1.170500554541026,-1.0144338139355558
109,1,110,55,98,110,1,2998.353,84,982.983,LESS,154,1404,1558,3,2,12.0,1.124890152809385,12.0,0.5238227218271837,0.9032765647904656,0.19765036520583795,208,98,110,1,0.9573613191275298,0.7023003327246156,1.170500554541026,0.4563983243081045,0.7434416449326616,0.7434416449326616,1.170500554541026,0.7023003327246156,1,1,1,2,1.170500554541026,0.7023003327246156
110,1,111,2,50,52,0,2079.715,54,1525.128,LESS,-808,1406,598,2,1,2.0,0.18748169213489754,2.0,-1.222253017596762,-0.6400531140162148,-0.5518702246505574,102,50,52,1,-1.156811593945765,-1.170500554541026,-1.092467184238291,-0.3993485337695917,-0.4260148458766977,0.4260148458766977,-1.092467184238291,-1.170500554541026,0,1,0,0,-1.170500554541026,-1.092467184238291
111,1,112,59,110,89,1,1666.1029999999996,64,1778.183,LESS,-742,1250,508,2,1,-21.0,-1.9685577674164243,21.0,2.0952908873087353,-0.1256098877473213,-0.8893379869374254,199,110,89,0,0.7778560717911179,1.170500554541026,0.3511501663623078,-0.3993485337695917,-0.3457818641787583,0.3457818641787583,0.3511501663623078,1.170500554541026,0,0,0,2,1.170500554541026,0.3511501663623078
112,1,113,60,87,110,0,2426.928,64,901.849,LESS,-1404,1898,494,2,2,23.0,2.1560394595513217,23.0,2.444506035193524,-0.1256098877473213,-0.26857768442708696,197,87,110,1,0.7379660168274708,0.27311679605957273,1.170500554541026,-0.3993485337695917,-1.1505429836338474,1.1505429836338474,1.170500554541026,0.27311679605957273,0,0,0,2,1.170500554541026,0.27311679605957273
113,1,114,52,110,105,1,3263.2990000000004,74,903.194,LESS,-444,1734,1290,3,2,-5.0,-0.4687042303372438,5.0,-0.6984302957695783,0.38883333852157215,0.4138209157383577,215,110,105,0,1.0969765115002945,1.170500554541026,0.9754171287841883,0.4563983243081045,0.016482204699816597,0.016482204699816597,0.9754171287841883,1.170500554541026,1,1,1,2,1.170500554541026,0.9754171287841883
114,1,115,30,80,96,0,1723.836,84,872.135,LESS,328,800,1128,2,2,16.0,1.4998535370791803,16.0,1.222253017596762,0.9032765647904656,-0.8422333905521467,176,80,96,1,0.3191204397091766,0.0,0.6242669624218805,-0.3993485337695917,0.9549649603181382,0.9549649603181382,0.6242669624218805,0.0,1,0,1,1,0.6242669624218805,0.0
115,1,116,24,80,86,0,1368.6429999999998,94,1116.496,LESS,1122,464,1586,1,2,6.0,0.5624450764046927,6.0,-0.5238227218271837,1.417719791059359,-1.1320368461819628,166,80,86,1,0.11967016489094122,0.0,0.2341001109082052,-1.2550953918472878,1.9201920431691062,1.9201920431691062,0.2341001109082052,0.0,1,0,1,1,0.2341001109082052,0.0
116,1,117,5,50,55,0,1990.443,74,1166.408,LESS,-670,1340,670,2,2,5.0,0.4687042303372438,5.0,-0.6984302957695783,0.38883333852157215,-0.6247076231662516,105,50,55,1,-1.0969765115002945,-1.170500554541026,-0.9754171287841883,-0.3993485337695917,-0.25825497505373346,0.25825497505373346,-0.9754171287841883,-1.170500554541026,1,0,0,0,-1.170500554541026,-0.9754171287841883
117,1,118,34,80,74,0,2997.126,94,929.632,LESS,164,1510,1674,3,2,-6.0,-0.5624450764046927,6.0,-0.5238227218271837,1.417719791059359,0.1966492507692985,154,80,74,0,-0.11967016489094122,0.0,-0.2341001109082052,0.4563983243081045,0.7555981573111372,0.7555981573111372,-0.2341001109082052,0.0,1,1,1,1,0.0,-0.2341001109082052
118,1,119,15,45,50,0,1573.53,54,1699.412,LESS,-4,802,798,2,1,5.0,0.4687042303372438,5.0,-0.6984302957695783,-0.6400531140162148,-0.9648686851719592,95,45,50,1,-1.2964267863185297,-1.3655839802978638,-1.170500554541026,-0.3993485337695917,0.5513687493527459,0.5513687493527459,-1.170500554541026,-1.3655839802978638,0,0,1,0,-1.3655839802978638,-1.170500554541026
119,1,120,37,69,80,0,2306.153,64,1397.419,LESS,-982,1696,714,2,1,11.0,1.0311493067419364,11.0,0.34921514788478913,-0.1256098877473213,-0.3671185125224915,149,69,80,1,-0.21939530230005888,-0.4291835366650429,0.0,-0.3993485337695917,-0.6375381612621742,0.6375381612621742,0.0,-0.4291835366650429,1,0,0,1,-0.4291835366650429,0.0
120,1,121,48,128,110,0,1686.53,84,947.11,MORE,-156,1208,1052,2,2,-18.0,-1.6873352292140782,18.0,1.571468165481551,0.9032765647904656,-0.8726715121247169,238,128,110,1,1.5557121435822359,1.8728008872656416,1.170500554541026,-0.3993485337695917,0.3665897611999158,0.3665897611999158,1.170500554541026,1.8728008872656416,1,1,1,2,1.8728008872656416,1.170500554541026
121,1,122,8,50,58,1,2010.532,74,1007.719,MORE,10,942,952,3,2,8.0,0.7499267685395902,8.0,-0.17460757394239454,0.38883333852157215,-0.6083169239684989,108,50,58,0,-1.0371414290548238,-1.170500554541026,-0.8583670733300858,0.4563983243081045,0.5683878666826119,0.5683878666826119,-0.8583670733300858,-1.170500554541026,1,1,1,0,-1.170500554541026,-0.8583670733300858
122,1,123,4,54,50,0,2244.929,64,1086.016,MORE,-1434,1996,562,2,1,-4.0,-0.3749633842697951,4.0,-0.8730378697119728,-0.1256098877473213,-0.41707143042199896,104,54,50,1,-1.116921538982118,-1.0144338139355558,-1.170500554541026,-0.3993485337695917,-1.1870125207692743,1.1870125207692743,-1.170500554541026,-1.0144338139355558,0,1,0,0,-1.0144338139355558,-1.170500554541026
123,1,124,37,80,69,0,2092.94,74,1731.996,MORE,-848,1684,836,3,1,-11.0,-1.0311493067419364,11.0,0.34921514788478913,0.38883333852157215,-0.5410798917872851,149,80,69,1,-0.21939530230005888,0.0,-0.4291835366650429,0.4563983243081045,-0.4746408953906004,0.4746408953906004,-0.4291835366650429,0.0,1,1,0,1,0.0,-0.4291835366650429
124,1,125,52,105,110,1,1361.319,94,676.7919999999998,MORE,628,574,1202,1,2,5.0,0.4687042303372438,5.0,-0.6984302957695783,1.417719791059359,-1.138012528442122,215,105,110,0,1.0969765115002945,0.9754171287841883,1.170500554541026,-1.2550953918472878,1.3196603316724083,1.3196603316724083,1.170500554541026,0.9754171287841883,1,0,1,2,1.170500554541026,0.9754171287841883
125,1,126,5,55,50,1,1596.589,74,931.733,MORE,866,616,1482,1,2,-5.0,-0.4687042303372438,5.0,-0.6984302957695783,0.38883333852157215,-0.9460547505410182,105,55,50,1,-1.0969765115002945,-0.9754171287841883,-1.170500554541026,-1.2550953918472878,1.608985326280129,1.608985326280129,-1.170500554541026,-0.9754171287841883,1,0,1,0,-0.9754171287841883,-1.170500554541026
126,1,127,30,96,80,0,2850.121,74,1650.773,MORE,-1778,2456,678,2,1,-16.0,-1.4998535370791803,16.0,1.222253017596762,0.38883333852157215,0.07670725586832615,176,96,80,1,0.3191204397091766,0.6242669624218805,0.0,-0.3993485337695917,-1.6051965465888374,1.6051965465888374,0.0,0.6242669624218805,1,1,0,1,0.6242669624218805,0.0
127,1,128,33,80,75,1,1380.8970000000004,94,1098.922,MORE,560,530,1090,1,2,-5.0,-0.4687042303372438,5.0,-0.6984302957695783,1.417719791059359,-1.1220387562835472,155,80,75,1,-0.09972513740911768,0.0,-0.19508342575683765,-1.2550953918472878,1.2369960474987738,1.2369960474987738,-0.19508342575683765,0.0,1,0,1,1,0.0,-0.19508342575683765
128,1,129,48,110,128,1,1391.672,64,1794.924,MORE,-234,1162,928,1,1,18.0,1.6873352292140782,18.0,1.571468165481551,-0.1256098877473213,-1.113247388676609,238,110,128,0,1.5557121435822359,1.170500554541026,1.8728008872656416,-1.2550953918472878,0.2717689646478056,0.2717689646478056,1.8728008872656416,1.170500554541026,0,0,1,2,1.8728008872656416,1.170500554541026
129,1,130,9,59,50,0,2101.903,74,1239.822,MORE,-990,1578,588,2,1,-9.0,-0.8436676146070391,9.0,0.0,0.38883333852157215,-0.5337669425658478,109,59,50,1,-1.0171964015730004,-0.8193503881787182,-1.170500554541026,-0.3993485337695917,-0.6472633711649548,0.6472633711649548,-1.170500554541026,-0.8193503881787182,1,1,0,0,-0.8193503881787182,-1.170500554541026
130,1,131,44,110,119,1,1582.34,54,1258.389,MORE,28,826,854,1,2,9.0,0.8436676146070391,9.0,0.0,-0.6400531140162148,-0.9576805692910196,229,110,119,0,1.376206896245824,1.170500554541026,1.5216507209033339,-1.2550953918472878,0.590269588963868,0.590269588963868,1.5216507209033339,1.170500554541026,0,0,1,2,1.5216507209033339,1.170500554541026
131,1,132,2,52,50,0,2320.312,74,1463.68,MORE,-1118,1626,508,2,1,-2.0,-0.18748169213489754,2.0,-1.222253017596762,0.38883333852157215,-0.3555661251492533,102,52,50,1,-1.156811593945765,-1.092467184238291,-1.170500554541026,-0.3993485337695917,-0.8028667296094433,0.8028667296094433,-1.170500554541026,-1.092467184238291,1,1,0,0,-1.092467184238291,-1.170500554541026
132,1,133,8,58,50,0,2184.782,64,1365.006,MORE,-572,1342,770,2,1,-8.0,-0.7499267685395902,8.0,-0.17460757394239454,-0.1256098877473213,-0.4661456195129059,108,58,50,1,-1.0371414290548238,-0.8583670733300858,-1.170500554541026,-0.3993485337695917,-0.13912115374467193,0.13912115374467193,-1.170500554541026,-0.8583670733300858,0,1,0,0,-0.8583670733300858,-1.170500554541026
133,1,134,44,119,110,0,2602.684,24,1035.977,MORE,-1200,2076,876,2,1,-9.0,-0.8436676146070391,9.0,0.0,-2.1833827928228957,-0.12517762826698814,229,119,110,1,1.376206896245824,1.5216507209033339,1.170500554541026,-0.3993485337695917,-0.9025501311129438,0.9025501311129438,1.170500554541026,1.5216507209033339,0,1,0,2,1.5216507209033339,1.170500554541026
134,1,135,34,74,80,1,2890.742,64,1896.005,MORE,-574,1792,1218,3,1,6.0,0.5624450764046927,6.0,-0.5238227218271837,-0.1256098877473213,0.10985009981834422,154,74,80,0,-0.11967016489094122,-0.2341001109082052,0.0,0.4563983243081045,-0.14155245622036708,0.14155245622036708,0.0,-0.2341001109082052,0,1,0,1,-0.2341001109082052,0.0
135,1,136,24,86,80,1,1954.547,84,1049.5510000000004,MORE,274,1024,1298,1,2,-6.0,-0.5624450764046927,6.0,-0.5238227218271837,0.9032765647904656,-0.6539953198361967,166,86,80,1,0.11967016489094122,0.2341001109082052,0.0,-1.2550953918472878,0.8893197934743696,0.8893197934743696,0.0,0.2341001109082052,1,0,1,1,0.2341001109082052,0.0
136,1,137,39,66,80,1,1901.984,64,1813.237,MORE,124,1098,1222,1,1,14.0,1.3123718449442827,14.0,0.8730378697119728,-0.1256098877473213,-0.6968816915785172,146,66,80,0,-0.2792303847455295,-0.5462335921191455,0.0,-1.2550953918472878,0.7069721077972346,0.7069721077972346,0.0,-0.5462335921191455,0,0,1,1,-0.5462335921191455,0.0
137,1,138,9,50,59,1,3133.506,44,953.615,MORE,-398,1646,1248,3,1,9.0,0.8436676146070391,9.0,0.0,-1.1544963402851085,0.30792226369127096,109,50,59,0,-1.0171964015730004,-1.170500554541026,-0.8193503881787182,0.4563983243081045,0.07240216164080467,0.07240216164080467,-0.8193503881787182,-1.170500554541026,0,1,0,0,-1.170500554541026,-0.8193503881787182
138,1,139,57,94,110,1,2545.418,64,2154.544,MORE,336,1248,1584,3,2,16.0,1.4998535370791803,16.0,1.222253017596762,-0.1256098877473213,-0.17190119739728366,204,94,110,0,0.8775812092002355,0.5462335921191455,1.170500554541026,0.4563983243081045,0.9646901702209187,0.9646901702209187,1.170500554541026,0.5462335921191455,0,1,1,2,1.170500554541026,0.5462335921191455
139,1,140,60,110,87,0,2023.468,74,1120.839,MORE,-952,1604,652,2,2,-23.0,-2.1560394595513217,23.0,2.444506035193524,0.38883333852157215,-0.5977623874150552,197,110,87,1,0.7379660168274708,1.170500554541026,0.27311679605957273,-0.3993485337695917,-0.6010686241267473,0.6010686241267473,0.27311679605957273,1.170500554541026,1,1,0,2,1.170500554541026,0.27311679605957273
140,1,141,33,75,80,1,3330.755,84,846.965,MORE,430,1490,1920,3,2,5.0,0.4687042303372438,5.0,-0.6984302957695783,0.9032765647904656,0.4688585485266298,155,75,80,0,-0.09972513740911768,-0.19508342575683765,0.0,0.4563983243081045,1.07896138657859,1.07896138657859,0.0,-0.19508342575683765,1,1,1,1,-0.19508342575683765,0.0
141,1,142,15,50,45,0,1866.57,54,2507.707000000001,MORE,-1126,1720,594,2,1,-5.0,-0.4687042303372438,5.0,-0.6984302957695783,-0.6400531140162148,-0.7257761224306858,95,50,45,1,-1.2964267863185297,-1.170500554541026,-1.3655839802978638,-0.3993485337695917,-0.8125919395122239,0.8125919395122239,-1.3655839802978638,-1.170500554541026,0,1,0,0,-1.170500554541026,-1.3655839802978638
142,1,143,59,89,110,1,1604.858,74,1110.665,MORE,294,784,1078,1,2,21.0,1.9685577674164243,21.0,2.0952908873087353,0.38883333852157215,-0.9393080388248444,199,89,110,0,0.7778560717911179,0.3511501663623078,1.170500554541026,-1.2550953918472878,0.9136328182313209,0.9136328182313209,1.170500554541026,0.3511501663623078,1,0,1,2,1.170500554541026,0.3511501663623078
143,1,144,29,80,94,1,2458.127,70,1505.0179999999998,MORE,838,1266,2104,3,2,14.0,1.3123718449442827,14.0,0.8730378697119728,0.1830560480140148,-0.2431222897199992,174,80,94,0,0.2792303847455295,0.0,0.5462335921191455,0.4563983243081045,1.5749470916203971,1.5749470916203971,0.5462335921191455,0.0,0,1,1,1,0.5462335921191455,0.0
144,1,145,55,110,98,0,4970.636,64,2027.965,MORE,-1374,2898,1524,4,1,-12.0,-1.124890152809385,12.0,0.5238227218271837,-0.1256098877473213,1.8068443213928689,208,110,98,1,0.9573613191275298,1.170500554541026,0.7023003327246156,1.3121451823858008,-1.1140734464984203,1.1140734464984203,0.7023003327246156,1.170500554541026,0,1,0,2,1.170500554541026,0.7023003327246156
145,1,146,29,94,80,0,3115.157,64,1281.616,MORE,-1762,2416,654,2,1,-14.0,-1.3123718449442827,14.0,0.8730378697119728,-0.1256098877473213,0.29295123777760884,174,94,80,1,0.2792303847455295,0.5462335921191455,0.0,-0.3993485337695917,-1.5857461267832762,1.5857461267832762,0.0,0.5462335921191455,0,1,0,1,0.5462335921191455,0.0
146,1,147,57,110,94,0,3128.098,64,1306.006,MORE,-1426,2218,792,2,1,-16.0,-1.4998535370791803,16.0,1.222253017596762,-0.1256098877473213,0.3035098538519836,204,110,94,1,0.8775812092002355,1.170500554541026,0.5462335921191455,-0.3993485337695917,-1.1772873108664939,1.1772873108664939,0.5462335921191455,1.170500554541026,0,0,0,2,1.170500554541026,0.5462335921191455
147,1,148,39,80,66,0,3745.136,80,1356.805,MORE,-1382,2860,1478,2,2,-14.0,-1.3123718449442827,14.0,0.8730378697119728,0.6974992742829083,0.8069537411327302,146,80,66,1,-0.2792303847455295,0.0,-0.5462335921191455,-0.3993485337695917,-1.123798656401201,1.123798656401201,-0.5462335921191455,0.0,1,0,0,1,0.0,-0.5462335921191455
148,1,149,4,50,54,1,3673.352,64,1957.847,MORE,-686,2190,1504,3,1,4.0,0.3749633842697951,4.0,-0.8730378697119728,-0.1256098877473213,0.7483848750263298,104,50,54,0,-1.116921538982118,-1.170500554541026,-1.0144338139355558,0.4563983243081045,-0.2777053948592946,0.2777053948592946,-1.0144338139355558,-1.170500554541026,0,1,0,0,-1.170500554541026,-1.0144338139355558
149,1,150,55,98,110,1,4942.765,74,1805.4,MORE,-1618,3112,1494,2,2,12.0,1.124890152809385,12.0,0.5238227218271837,0.38883333852157215,1.78410425581765,208,98,110,0,0.9573613191275298,0.7023003327246156,1.170500554541026,-0.3993485337695917,-1.4106923485332268,1.4106923485332268,1.170500554541026,0.7023003327246156,1,0,0,2,1.170500554541026,0.7023003327246156
150,1,151,2,50,52,0,2224.593,74,1510.151,MORE,-1022,1600,578,2,1,2.0,0.18748169213489754,2.0,-1.222253017596762,0.38883333852157215,-0.4336636579537578,102,50,52,0,-1.156811593945765,-1.170500554541026,-1.092467184238291,-0.3993485337695917,-0.6861642107760769,0.6861642107760769,-1.092467184238291,-1.170500554541026,1,0,0,0,-1.170500554541026,-1.092467184238291
151,1,152,59,110,89,1,2997.098,4,1262.236,MORE,-2028,3020,992,2,1,-21.0,-1.9685577674164243,21.0,2.0952908873087353,-3.2122692453606816,0.1966264054520831,199,110,89,1,0.7778560717911179,1.170500554541026,0.3511501663623078,-0.3993485337695917,-1.909109356050729,1.909109356050729,0.3511501663623078,1.170500554541026,0,0,0,2,1.170500554541026,0.3511501663623078
152,1,153,60,87,110,1,1391.7379999999996,84,1035.328,MORE,460,696,1156,1,2,23.0,2.1560394595513217,23.0,2.444506035193524,0.9032765647904656,-1.1131935390003165,197,87,110,0,0.7379660168274708,0.27311679605957273,1.170500554541026,-1.2550953918472878,1.115430923714017,1.115430923714017,1.170500554541026,0.27311679605957273,1,0,1,2,1.170500554541026,0.27311679605957273
153,1,154,52,110,105,0,3340.985,100,835.78,MORE,-940,2234,1294,2,2,-5.0,-0.4687042303372438,5.0,-0.6984302957695783,1.7263857268206952,0.4772052483520572,215,110,105,1,1.0969765115002945,1.170500554541026,0.9754171287841883,-0.3993485337695917,-0.5864808092725765,0.5864808092725765,0.9754171287841883,1.170500554541026,1,0,0,2,1.170500554541026,0.9754171287841883
154,1,155,30,80,96,1,1648.785,84,747.819,MORE,48,970,1018,1,2,16.0,1.4998535370791803,16.0,1.222253017596762,0.9032765647904656,-0.9034678156350546,176,80,96,0,0.3191204397091766,0.0,0.6242669624218805,-1.2550953918472878,0.6145826137208195,0.6145826137208195,0.6242669624218805,0.0,1,0,1,1,0.6242669624218805,0.0
155,1,156,24,80,86,0,1990.089,44,1589.569,MORE,-1548,2114,566,2,1,6.0,0.5624450764046927,6.0,-0.5238227218271837,-1.1544963402851085,-0.6249964532481872,166,80,86,0,0.11967016489094122,0.0,0.2341001109082052,-0.3993485337695917,-1.325596761883897,1.325596761883897,0.2341001109082052,0.0,0,0,0,1,0.2341001109082052,0.0
156,1,157,5,50,55,1,2490.532,74,893.86,MORE,362,1096,1458,2,2,5.0,0.4687042303372438,5.0,-0.6984302957695783,0.38883333852157215,-0.21668291456428315,105,50,55,0,-1.0969765115002945,-1.170500554541026,-0.9754171287841883,-0.3993485337695917,0.9962971024049555,0.9962971024049555,-0.9754171287841883,-1.170500554541026,1,0,1,0,-1.170500554541026,-0.9754171287841883
157,1,158,34,80,74,0,2508.0170000000007,64,2009.535,MORE,-1012,1672,660,2,1,-6.0,-0.5624450764046927,6.0,-0.5238227218271837,-0.1256098877473213,-0.20241682986754786,154,80,74,1,-0.11967016489094122,0.0,-0.2341001109082052,-0.3993485337695917,-0.6740076983976012,0.6740076983976012,-0.2341001109082052,0.0,0,0,0,1,0.0,-0.2341001109082052
158,1,159,15,45,50,1,2293.524,64,2147.895,MORE,-302,1312,1010,3,1,5.0,0.4687042303372438,5.0,-0.6984302957695783,-0.1256098877473213,-0.3774225664907536,95,45,50,0,-1.2964267863185297,-1.3655839802978638,-1.170500554541026,0.4563983243081045,0.1891046804741711,0.1891046804741711,-1.170500554541026,-1.3655839802978638,0,1,0,0,-1.3655839802978638,-1.170500554541026
159,1,160,37,69,80,1,3004.818,24,800.012,MORE,-898,1828,930,3,2,11.0,1.0311493067419364,11.0,0.34921514788478913,-2.1833827928228957,0.20292518577000115,149,69,80,0,-0.21939530230005888,-0.4291835366650429,0.0,0.4563983243081045,-0.5354234572829787,0.5354234572829787,0.0,-0.4291835366650429,0,1,0,1,-0.4291835366650429,0.0
160,1,161,3,50,53,0,2773.406,54,1318.667,LESS,-514,1546,1032,4,1,3.0,0.28122253820234633,3.0,-1.0476454436543674,-0.6400531140162148,0.014115166219483525,103,50,53,1,-1.1368665664639415,-1.170500554541026,-1.0534504990869233,1.3121451823858008,-0.06861338194951308,0.06861338194951308,-1.0534504990869233,-1.170500554541026,0,1,1,0,-1.170500554541026,-1.0534504990869233
161,1,162,20,50,40,1,2122.486,84,813.427,LESS,986,646,1632,1,2,-10.0,-0.9374084606744876,10.0,0.17460757394239454,0.9032765647904656,-0.5169731867000832,90,50,40,0,-1.3961519237276474,-1.170500554541026,-1.5606674060547012,-1.2550953918472878,1.754863474821837,1.754863474821837,-1.5606674060547012,-1.170500554541026,1,0,1,0,-1.170500554541026,-1.5606674060547012
162,1,163,25,80,88,0,1541.2910000000004,64,889.138,LESS,-644,1088,444,2,1,8.0,0.7499267685395902,8.0,-0.17460757394239454,-0.1256098877473213,-0.991172620232756,168,80,88,1,0.1595602198545883,0.0,0.31213348121094026,-0.3993485337695917,-0.22664804286969675,0.22664804286969675,0.31213348121094026,0.0,0,0,1,1,0.31213348121094026,0.0
163,1,164,42,115,110,0,1792.184,4,970.264,LESS,-1446,1990,544,2,1,-5.0,-0.4687042303372438,5.0,-0.6984302957695783,-3.2122692453606816,-0.7864679712297316,225,115,110,0,1.2964267863185297,1.3655839802978638,1.170500554541026,-0.3993485337695917,-1.2016003356234453,1.2016003356234453,1.170500554541026,1.3655839802978638,0,0,0,2,1.3655839802978638,1.170500554541026
164,1,165,53,103,110,0,1719.1229999999996,54,1986.11,LESS,-1332,1834,502,2,1,7.0,0.6561859224721414,7.0,-0.34921514788478913,-0.6400531140162148,-0.8460787469819847,213,103,110,1,1.0570864565366473,0.8973837584814532,1.170500554541026,-0.3993485337695917,-1.0630160945088225,1.0630160945088225,1.170500554541026,0.8973837584814532,0,0,0,2,1.170500554541026,0.8973837584814532
165,1,166,26,90,80,1,5485.479,4,2758.4240000000004,LESS,-1090,3638,2548,4,1,-10.0,-0.9374084606744876,10.0,0.17460757394239454,-3.2122692453606816,2.2269068803588987,170,90,80,0,0.19945027481823535,0.3901668515136753,0.0,1.3121451823858008,-0.7688284949497115,0.7688284949497115,0.0,0.3901668515136753,0,1,0,1,0.3901668515136753,0.0
166,1,167,35,80,72,1,4941.353,74,1431.467,LESS,-784,2636,1852,5,2,-8.0,-0.7499267685395902,8.0,-0.17460757394239454,0.38883333852157215,1.7829521991066524,152,80,72,0,-0.1595602198545883,0.0,-0.31213348121094026,2.1678920404634967,-0.3968392161683561,0.3968392161683561,-0.31213348121094026,0.0,1,1,0,1,0.0,-0.31213348121094026
167,1,168,28,93,80,1,1580.206,64,2648.327,LESS,-650,1388,738,3,1,-13.0,-1.218630998876834,13.0,0.6984302957695783,-0.1256098877473213,-0.9594217088244956,173,93,80,0,0.25928535726370594,0.5072169069677779,0.0,0.4563983243081045,-0.23394195029678216,0.23394195029678216,0.0,0.5072169069677779,0,1,1,1,0.5072169069677779,0.0
168,1,169,26,80,90,0,3148.962,64,1415.5120000000004,LESS,-82,1546,1464,4,1,10.0,0.9374084606744876,10.0,0.17460757394239454,-0.1256098877473213,0.3205328787940869,170,80,90,1,0.19945027481823535,0.0,0.3901668515136753,1.3121451823858008,0.45654795280063576,0.45654795280063576,0.3901668515136753,0.0,0,1,1,1,0.3901668515136753,0.0
169,1,170,25,88,80,1,2129.2,64,1067.862,LESS,-166,1114,948,3,2,-8.0,-0.7499267685395902,8.0,-0.17460757394239454,-0.1256098877473213,-0.5114952059935418,168,88,80,0,0.1595602198545883,0.31213348121094026,0.0,0.4563983243081045,0.35443324882144017,0.35443324882144017,0.0,0.31213348121094026,0,1,1,1,0.31213348121094026,0.0
170,1,171,36,80,70,0,1528.68,44,1224.553,LESS,-974,1490,516,2,1,-10.0,-0.9374084606744876,10.0,0.17460757394239454,-1.1544963402851085,-1.0014619879256657,150,80,70,0,-0.19945027481823535,0.0,-0.3901668515136753,-0.3993485337695917,-0.6278129513593937,0.6278129513593937,-0.3901668515136753,0.0,0,0,0,1,0.0,-0.3901668515136753
171,1,172,28,80,93,0,1442.214,94,877.346,LESS,284,786,1070,2,2,13.0,1.218630998876834,13.0,0.6984302957695783,1.417719791059359,-1.0720099592947177,173,80,93,1,0.25928535726370594,0.0,0.5072169069677779,-0.3993485337695917,0.9014763058528452,0.9014763058528452,0.5072169069677779,0.0,1,0,1,1,0.5072169069677779,0.0
172,1,173,21,82,80,0,1628.017,34,1046.34,LESS,-990,1626,636,2,1,-2.0,-0.18748169213489754,2.0,-1.222253017596762,-1.6689395665540017,-0.920412513775277,162,82,80,0,0.03989005496364707,0.07803337030273506,0.0,-0.3993485337695917,-0.6472633711649548,0.6472633711649548,0.0,0.07803337030273506,0,0,0,1,0.07803337030273506,0.0
173,1,174,19,50,41,1,2346.231,64,2004.1,LESS,-230,1232,1002,3,2,-9.0,-0.8436676146070391,9.0,0.0,-0.1256098877473213,-0.3344187045456117,91,50,41,0,-1.376206896245824,-1.170500554541026,-1.5216507209033339,0.4563983243081045,0.2766315695991959,0.2766315695991959,-1.5216507209033339,-1.170500554541026,0,1,1,0,-1.170500554541026,-1.5216507209033339
174,1,175,56,96,110,0,3316.3390000000004,74,1293.82,LESS,-750,2054,1304,4,1,14.0,1.3123718449442827,14.0,0.8730378697119728,0.38883333852157215,0.4570964737775234,206,96,110,1,0.9174712641638826,0.6242669624218805,1.170500554541026,1.3121451823858008,-0.3555070740815388,0.3555070740815388,1.170500554541026,0.6242669624218805,1,1,0,2,1.170500554541026,0.6242669624218805
175,1,176,23,80,85,0,3031.183,74,1120.025,LESS,-868,1766,898,1,1,5.0,0.4687042303372438,5.0,-0.6984302957695783,0.38883333852157215,0.22443649964071372,165,80,85,1,0.09972513740911768,0.0,0.19508342575683765,-1.2550953918472878,-0.4989539201475517,0.4989539201475517,0.19508342575683765,0.0,1,0,0,1,0.19508342575683765,0.0
176,1,177,10,60,50,0,2266.764,64,1075.631,LESS,-902,1552,650,2,1,-10.0,-0.9374084606744876,10.0,0.17460757394239454,-0.1256098877473213,-0.3992561625150384,110,60,50,0,-0.9972513740911768,-0.7803337030273506,-1.170500554541026,-0.3993485337695917,-0.5402860622343689,0.5402860622343689,-1.170500554541026,-0.7803337030273506,1,0,0,0,-0.7803337030273506,-1.170500554541026
177,1,178,19,41,50,0,1321.42,100,742.828,LESS,546,722,1268,3,2,9.0,0.8436676146070391,9.0,0.0,1.7263857268206952,-1.170566289569661,91,41,50,1,-1.376206896245824,-1.5216507209033339,-1.170500554541026,0.4563983243081045,1.2199769301689078,1.2199769301689078,-1.170500554541026,-1.5216507209033339,1,1,1,0,-1.5216507209033339,-1.170500554541026
178,1,179,56,110,96,1,2265.431,64,1102.483,LESS,-918,1634,716,3,2,-14.0,-1.3123718449442827,14.0,0.8730378697119728,-0.1256098877473213,-0.4003437627953214,206,110,96,0,0.9174712641638826,1.170500554541026,0.6242669624218805,0.4563983243081045,-0.5597364820399301,0.5597364820399301,0.6242669624218805,1.170500554541026,1,1,0,2,1.170500554541026,0.6242669624218805
179,1,180,35,72,80,0,4164.13,64,1025.624,LESS,-510,2232,1722,4,1,8.0,0.7499267685395902,8.0,-0.17460757394239454,-0.1256098877473213,1.1488126997500427,152,72,80,1,-0.1595602198545883,-0.31213348121094026,0.0,1.3121451823858008,-0.0637507769981228,0.0637507769981228,0.0,-0.31213348121094026,0,1,1,1,-0.31213348121094026,0.0
180,1,181,11,49,50,0,2726.3920000000007,54,1155.84,LESS,-1320,2026,706,2,1,1.0,0.09374084606744876,1.0,-1.3968605915391563,-0.6400531140162148,-0.024243753193286238,99,49,50,1,-1.2166466763912356,-1.2095172396923934,-1.170500554541026,-0.3993485337695917,-1.0484282796546518,1.0484282796546518,-1.170500554541026,-1.2095172396923934,0,0,0,0,-1.2095172396923934,-1.170500554541026
181,1,182,17,43,50,1,2464.949,84,739.11,LESS,-436,1472,1036,2,2,7.0,0.6561859224721414,7.0,-0.34921514788478913,0.9032765647904656,-0.23755619136134165,93,43,50,1,-1.3363168412821769,-1.4436173506005987,-1.170500554541026,-0.3993485337695917,0.02620741460259713,0.02620741460259713,-1.170500554541026,-1.4436173506005987,1,0,1,0,-1.4436173506005987,-1.170500554541026
182,1,183,1,51,50,1,1844.314,74,1503.046,LESS,86,920,1006,1,2,-1.0,-0.09374084606744876,1.0,-1.3968605915391563,0.38883333852157215,-0.7439348860000611,101,51,50,0,-1.1767566214275886,-1.1314838693896585,-1.170500554541026,-1.2550953918472878,0.660777360759027,0.660777360759027,-1.170500554541026,-1.1314838693896585,1,0,1,0,-1.1314838693896585,-1.170500554541026
183,1,184,41,112,110,1,4667.099,84,1290.065,LESS,802,1590,2392,4,2,-2.0,-0.18748169213489754,2.0,-1.222253017596762,0.9032765647904656,1.5591872124084365,222,112,110,0,1.2365917038730592,1.248533924843761,1.170500554541026,1.3121451823858008,1.5311836470578848,1.5311836470578848,1.170500554541026,1.248533924843761,1,1,1,2,1.248533924843761,1.170500554541026
184,1,185,20,40,50,0,3192.2270000000008,80,1272.118,LESS,-358,1968,1610,2,2,10.0,0.9374084606744876,10.0,0.17460757394239454,0.6974992742829083,0.3558329734125737,90,40,50,1,-1.3961519237276474,-1.5606674060547012,-1.170500554541026,-0.3993485337695917,0.12102821115470734,0.12102821115470734,-1.170500554541026,-1.5606674060547012,1,0,1,0,-1.5606674060547012,-1.170500554541026
185,1,186,1,50,51,0,2169.18,74,1218.1989999999996,LESS,-926,1538,612,2,1,1.0,0.09374084606744876,1.0,-1.3968605915391563,0.38883333852157215,-0.4788753566269157,101,50,51,1,-1.1767566214275886,-1.170500554541026,-1.1314838693896585,-0.3993485337695917,-0.5694616919427106,0.5694616919427106,-1.1314838693896585,-1.170500554541026,1,0,0,0,-1.170500554541026,-1.1314838693896585
186,1,187,23,85,80,1,2349.446,74,2338.112,LESS,-870,1736,866,3,1,-5.0,-0.4687042303372438,5.0,-0.6984302957695783,0.38883333852157215,-0.33179557258678993,165,85,80,0,0.09972513740911768,0.19508342575683765,0.0,0.4563983243081045,-0.5013852226232468,0.5013852226232468,0.0,0.19508342575683765,1,1,0,1,0.19508342575683765,0.0
187,1,188,11,50,49,0,3171.303,84,1148.621,LESS,-824,2006,1182,4,2,-1.0,-0.09374084606744876,1.0,-1.3968605915391563,0.9032765647904656,0.33876099421929423,99,50,49,0,-1.2166466763912356,-1.170500554541026,-1.2095172396923934,1.3121451823858008,-0.44546526568225875,0.44546526568225875,-1.2095172396923934,-1.170500554541026,1,1,0,0,-1.170500554541026,-1.2095172396923934
188,1,189,17,50,43,0,2993.885,84,824.794,LESS,-1362,2340,978,2,2,-7.0,-0.6561859224721414,7.0,-0.34921514788478913,0.9032765647904656,0.19400490530163386,93,50,43,0,-1.3363168412821769,-1.170500554541026,-1.4436173506005987,-0.3993485337695917,-1.0994856316442496,1.0994856316442496,-1.4436173506005987,-1.170500554541026,1,0,0,0,-1.170500554541026,-1.4436173506005987
189,1,190,21,80,82,0,2046.197,74,1904.786,LESS,-1160,1766,606,2,1,2.0,0.18748169213489754,2.0,-1.222253017596762,0.38883333852157215,-0.5792177011655795,162,80,82,1,0.03989005496364707,0.0,0.07803337030273506,-0.3993485337695917,-0.8539240815990411,0.8539240815990411,0.07803337030273506,0.0,1,0,0,1,0.07803337030273506,0.0
190,1,191,10,50,60,0,2000.771,84,944.253,LESS,-698,1600,902,2,2,10.0,0.9374084606744876,10.0,0.17460757394239454,0.9032765647904656,-0.6162809647305709,110,50,60,1,-0.9972513740911768,-1.170500554541026,-0.7803337030273506,-0.3993485337695917,-0.29229320971346534,0.29229320971346534,-0.7803337030273506,-1.170500554541026,1,0,0,0,-1.170500554541026,-0.7803337030273506
191,1,192,3,53,50,1,3949.34,0,1103.534,LESS,-1192,2932,1740,4,1,-3.0,-0.28122253820234633,3.0,-1.0476454436543674,-3.4180465358682395,0.9735646395835188,103,53,50,0,-1.1368665664639415,-1.0534504990869233,-1.170500554541026,1.3121451823858008,-0.8928249212101632,0.8928249212101632,-1.170500554541026,-1.0534504990869233,0,1,0,0,-1.0534504990869233,-1.170500554541026
192,1,193,45,122,110,1,2302.897,64,1668.531,LESS,-954,1710,756,3,2,-12.0,-1.124890152809385,12.0,0.5238227218271837,-0.1256098877473213,-0.36977509655295,232,122,110,0,1.4360419786912946,1.6387007763574364,1.170500554541026,0.4563983243081045,-0.6034999266024424,0.6034999266024424,1.170500554541026,1.6387007763574364,0,1,0,2,1.6387007763574364,1.170500554541026
193,1,194,38,67,80,0,1967.521,64,1759.361,LESS,-996,1610,614,2,1,13.0,1.218630998876834,13.0,0.6984302957695783,-0.1256098877473213,-0.6434097789236753,147,67,80,1,-0.25928535726370594,-0.5072169069677779,0.0,-0.3993485337695917,-0.6545572785920402,0.6545572785920402,0.0,-0.5072169069677779,0,0,0,1,-0.5072169069677779,0.0
194,1,195,38,80,67,0,5436.005,64,1471.9979999999996,LESS,-1502,3344,1842,3,2,-13.0,-1.218630998876834,13.0,0.6984302957695783,-0.1256098877473213,2.186540836647932,147,80,67,0,-0.25928535726370594,0.0,-0.5072169069677779,0.4563983243081045,-1.269676804942909,1.269676804942909,-0.5072169069677779,0.0,0,1,0,1,0.0,-0.5072169069677779
195,1,196,36,70,80,0,1555.042,74,1102.927,LESS,-608,1266,658,2,2,10.0,0.9374084606744876,10.0,0.17460757394239454,0.38883333852157215,-0.9799531217675118,150,70,80,1,-0.19945027481823535,-0.3901668515136753,0.0,-0.3993485337695917,-0.18288459830718434,0.18288459830718434,0.0,-0.3901668515136753,1,0,1,1,-0.3901668515136753,0.0
196,1,197,45,110,122,0,1991.723,74,1501.471,LESS,-158,1348,1190,2,2,12.0,1.124890152809385,12.0,0.5238227218271837,0.38883333852157215,-0.6236632658078404,232,110,122,1,1.4360419786912946,1.170500554541026,1.6387007763574364,-0.3993485337695917,0.3641584587242207,0.3641584587242207,1.6387007763574364,1.170500554541026,1,0,1,2,1.6387007763574364,1.170500554541026
197,1,198,42,110,115,0,3401.665,74,1125.329,LESS,-676,1924,1248,4,1,5.0,0.4687042303372438,5.0,-0.6984302957695783,0.38883333852157215,0.52671431437424,225,110,115,1,1.2964267863185297,1.170500554541026,1.3655839802978638,1.3121451823858008,-0.26554888248081887,0.26554888248081887,1.3655839802978638,1.170500554541026,1,1,0,2,1.3655839802978638,1.170500554541026
198,1,199,41,110,112,1,4202.816,74,712.398,LESS,-930,2248,1318,2,2,2.0,0.18748169213489754,2.0,-1.222253017596762,0.38883333852157215,1.1803767690996496,222,110,112,1,1.2365917038730592,1.170500554541026,1.248533924843761,-0.3993485337695917,-0.5743242968941008,0.5743242968941008,1.248533924843761,1.170500554541026,1,0,0,2,1.248533924843761,1.170500554541026
199,1,200,53,110,103,1,2110.906,44,1689.99,LESS,-212,1486,1274,4,1,-7.0,-0.6561859224721414,7.0,-0.34921514788478913,-1.1544963402851085,-0.5264213571769599,213,110,103,0,1.0570864565366473,1.170500554541026,0.8973837584814532,1.3121451823858008,0.29851329188045206,0.29851329188045206,0.8973837584814532,1.170500554541026,0,1,1,2,1.170500554541026,0.8973837584814532
200,1,201,3,50,53,1,3496.366,84,432.927,MORE,538,1100,1638,3,1,3.0,0.28122253820234633,3.0,-1.0476454436543674,0.9032765647904656,0.6039812567171329,103,50,53,0,-1.1368665664639415,-1.170500554541026,-1.0534504990869233,0.4563983243081045,1.2102517202661272,1.2102517202661272,-1.0534504990869233,-1.170500554541026,1,1,1,0,-1.170500554541026,-1.0534504990869233
201,1,202,20,50,40,1,2849.513,44,1664.501,MORE,-398,1728,1330,4,1,-10.0,-0.9374084606744876,10.0,0.17460757394239454,-1.1544963402851085,0.07621118612308066,90,50,40,1,-1.3961519237276474,-1.170500554541026,-1.5606674060547012,1.3121451823858008,0.07240216164080467,0.07240216164080467,-1.5606674060547012,-1.170500554541026,0,1,0,0,-1.170500554541026,-1.5606674060547012
202,1,203,25,80,88,1,1540.3929999999998,84,738.904,MORE,704,510,1214,1,2,8.0,0.7499267685395902,8.0,-0.17460757394239454,0.9032765647904656,-0.9919053021920168,168,80,88,0,0.1595602198545883,0.0,0.31213348121094026,-1.2550953918472878,1.4120498257488232,1.4120498257488232,0.31213348121094026,0.0,1,0,1,1,0.31213348121094026,0.0
203,1,204,42,115,110,0,2342.863,94,908.769,MORE,-424,1676,1252,2,2,-5.0,-0.4687042303372438,5.0,-0.6984302957695783,1.417719791059359,-0.33716666984493154,225,115,110,1,1.2964267863185297,1.3655839802978638,1.170500554541026,-0.3993485337695917,0.04079522945676793,0.04079522945676793,1.170500554541026,1.3655839802978638,1,0,0,2,1.3655839802978638,1.170500554541026
204,1,205,53,103,110,1,2502.521,74,987.566,MORE,734,1164,1898,3,2,7.0,0.6561859224721414,7.0,-0.34921514788478913,0.38883333852157215,-0.20690103927522654,213,103,110,0,1.0570864565366473,0.8973837584814532,1.170500554541026,0.4563983243081045,1.4485193628842503,1.4485193628842503,1.170500554541026,0.8973837584814532,1,1,1,2,1.170500554541026,0.8973837584814532
205,1,206,26,90,80,0,1799.6270000000004,74,1023.062,MORE,-412,1320,908,2,2,-10.0,-0.9374084606744876,10.0,0.17460757394239454,0.38883333852157215,-0.7803951963714071,170,90,80,1,0.19945027481823535,0.3901668515136753,0.0,-0.3993485337695917,0.05538304431093873,0.05538304431093873,0.0,0.3901668515136753,1,1,0,1,0.3901668515136753,0.0
206,1,207,35,80,72,1,5352.23,74,1152.651,MORE,-1290,3068,1778,3,2,-8.0,-0.7499267685395902,8.0,-0.17460757394239454,0.38883333852157215,2.1181884634441017,152,80,72,1,-0.1595602198545883,0.0,-0.31213348121094026,0.4563983243081045,-1.011958742519225,1.011958742519225,-0.31213348121094026,0.0,1,1,0,1,0.0,-0.31213348121094026
207,1,208,28,93,80,0,2424.21,54,2050.051,MORE,-1682,2104,422,2,1,-13.0,-1.218630998876834,13.0,0.6984302957695783,-0.6400531140162148,-0.27079531200533824,173,93,80,1,0.25928535726370594,0.5072169069677779,0.0,-0.3993485337695917,-1.488494027755471,1.488494027755471,0.0,0.5072169069677779,0,0,0,1,0.5072169069677779,0.0
208,1,209,26,80,90,1,1269.404,94,2162.822,MORE,620,850,1470,1,2,10.0,0.9374084606744876,10.0,0.17460757394239454,1.417719791059359,-1.213006361722098,170,80,90,0,0.19945027481823535,0.0,0.3901668515136753,-1.2550953918472878,1.3099351217696278,1.3099351217696278,0.3901668515136753,0.0,1,0,1,1,0.3901668515136753,0.0
209,1,210,25,88,80,0,2779.274000000001,64,1320.794,MORE,154,1314,1468,4,1,-8.0,-0.7499267685395902,8.0,-0.17460757394239454,-0.1256098877473213,0.01890289198445075,168,88,80,1,0.1595602198545883,0.31213348121094026,0.0,1.3121451823858008,0.7434416449326616,0.7434416449326616,0.0,0.31213348121094026,0,1,1,1,0.31213348121094026,0.0
210,1,211,36,80,70,0,2537.132,74,992.259,MORE,-1214,1742,528,2,1,-10.0,-0.9374084606744876,10.0,0.17460757394239454,0.38883333852157215,-0.17866177948462394,150,80,70,1,-0.19945027481823535,0.0,-0.3901668515136753,-0.3993485337695917,-0.9195692484428097,0.9195692484428097,-0.3901668515136753,0.0,1,0,0,1,0.0,-0.3901668515136753
211,1,212,28,80,93,1,2351.272,54,1543.057,MORE,124,1088,1212,3,2,13.0,1.218630998876834,13.0,0.6984302957695783,-0.6400531140162148,-0.3303057315426814,173,80,93,0,0.25928535726370594,0.0,0.5072169069677779,0.4563983243081045,0.7069721077972346,0.7069721077972346,0.5072169069677779,0.0,0,1,1,1,0.5072169069677779,0.0
212,1,213,21,82,80,0,2358.716,64,1835.591,MORE,-798,1616,818,2,1,-2.0,-0.18748169213489754,2.0,-1.222253017596762,-0.1256098877473213,-0.32423214078017104,162,82,80,1,0.03989005496364707,0.07803337030273506,0.0,-0.3993485337695917,-0.41385833349822204,0.41385833349822204,0.0,0.07803337030273506,0,0,0,1,0.07803337030273506,0.0
213,1,214,19,50,41,0,2684.724,94,777.5010000000002,MORE,-130,1620,1490,4,2,-9.0,-0.8436676146070391,9.0,0.0,1.417719791059359,-0.05824084882631765,91,50,41,1,-1.376206896245824,-1.170500554541026,-1.5216507209033339,1.3121451823858008,0.3981966933839526,0.3981966933839526,-1.5216507209033339,-1.170500554541026,1,1,1,0,-1.170500554541026,-1.5216507209033339
214,1,215,56,96,110,1,1983.477,54,1333.025,MORE,-206,1164,958,3,2,14.0,1.3123718449442827,14.0,0.8730378697119728,-0.6400531140162148,-0.6303912117277302,206,96,110,0,0.9174712641638826,0.6242669624218805,1.170500554541026,0.4563983243081045,0.30580719930753747,0.30580719930753747,1.170500554541026,0.6242669624218805,0,1,1,2,1.170500554541026,0.6242669624218805
215,1,216,23,80,85,1,4650.79,74,1294.437,MORE,-186,2200,2014,3,2,5.0,0.4687042303372438,5.0,-0.6984302957695783,0.38883333852157215,1.5458806310347415,165,80,85,0,0.09972513740911768,0.0,0.19508342575683765,0.4563983243081045,0.3301202240644888,0.3301202240644888,0.19508342575683765,0.0,1,1,1,1,0.19508342575683765,0.0
216,1,217,10,60,50,0,3835.065,74,1112.861,MORE,-1362,2464,1102,4,1,-10.0,-0.9374084606744876,10.0,0.17460757394239454,0.38883333852157215,0.8803271886987963,110,60,50,1,-0.9972513740911768,-0.7803337030273506,-1.170500554541026,1.3121451823858008,-1.0994856316442496,1.0994856316442496,-1.170500554541026,-0.7803337030273506,1,1,0,0,-0.7803337030273506,-1.170500554541026
217,1,218,19,41,50,1,3849.206,74,1285.45,MORE,-844,2306,1462,3,2,9.0,0.8436676146070391,9.0,0.0,0.38883333852157215,0.8918648897966819,91,41,50,0,-1.376206896245824,-1.5216507209033339,-1.170500554541026,0.4563983243081045,-0.4697782904392101,0.4697782904392101,-1.170500554541026,-1.5216507209033339,1,1,0,0,-1.5216507209033339,-1.170500554541026
218,1,219,56,110,96,0,3243.343,94,856.525,MORE,-1114,2346,1232,2,2,-14.0,-1.3123718449442827,14.0,0.8730378697119728,1.417719791059359,0.3975387317973769,206,110,96,1,0.9174712641638826,1.170500554541026,0.6242669624218805,-0.3993485337695917,-0.798004124658053,0.798004124658053,0.6242669624218805,1.170500554541026,1,0,0,2,1.170500554541026,0.6242669624218805
219,1,220,35,72,80,1,1644.5839999999996,74,911.53,MORE,-192,954,762,1,2,8.0,0.7499267685395902,8.0,-0.17460757394239454,0.38883333852157215,-0.906895429121528,152,72,80,0,-0.1595602198545883,-0.31213348121094026,0.0,-1.2550953918472878,0.3228263166374034,0.3228263166374034,0.0,-0.31213348121094026,1,0,1,1,-0.31213348121094026,0.0
220,1,221,11,49,50,1,1274.981,84,1153.684,MORE,798,452,1250,1,2,1.0,0.09374084606744876,1.0,-1.3968605915391563,0.9032765647904656,-1.2084560640753326,99,49,50,0,-1.2166466763912356,-1.2095172396923934,-1.170500554541026,-1.2550953918472878,1.5263210421064946,1.5263210421064946,-1.170500554541026,-1.2095172396923934,1,0,1,0,-1.2095172396923934,-1.170500554541026
221,1,222,17,43,50,1,2589.055,84,1447.4779999999996,MORE,1496,1084,2580,3,2,7.0,0.6561859224721414,7.0,-0.34921514788478913,0.9032765647904656,-0.13629758642150938,93,43,50,0,-1.3363168412821769,-1.4436173506005987,-1.170500554541026,0.4563983243081045,2.3748456061240963,2.3748456061240963,-1.170500554541026,-1.4436173506005987,1,1,1,0,-1.4436173506005987,-1.170500554541026
222,1,223,1,51,50,0,2300.565,64,1864.028,MORE,-1120,1764,644,2,1,-1.0,-0.09374084606744876,1.0,-1.3968605915391563,-0.1256098877473213,-0.37167778511530536,101,51,50,1,-1.1767566214275886,-1.1314838693896585,-1.170500554541026,-0.3993485337695917,-0.8052980320851385,0.8052980320851385,-1.170500554541026,-1.1314838693896585,0,0,0,0,-1.1314838693896585,-1.170500554541026
223,1,224,41,112,110,0,2922.026,84,666.538,MORE,-1002,1912,910,2,2,-2.0,-0.18748169213489754,2.0,-1.222253017596762,0.9032765647904656,0.13537484638126368,222,112,110,1,1.2365917038730592,1.248533924843761,1.170500554541026,-0.3993485337695917,-0.6618511860191256,0.6618511860191256,1.170500554541026,1.248533924843761,1,0,0,2,1.248533924843761,1.170500554541026
224,1,225,20,40,50,1,1135.847,64,1704.19,MORE,478,398,876,1,2,10.0,0.9374084606744876,10.0,0.17460757394239454,-0.1256098877473213,-1.3219760771262619,90,40,50,0,-1.3961519237276474,-1.5606674060547012,-1.170500554541026,-1.2550953918472878,1.1373126459952732,1.1373126459952732,-1.170500554541026,-1.5606674060547012,0,0,1,0,-1.5606674060547012,-1.170500554541026
225,1,226,1,50,51,1,1991.672,74,1875.281,MORE,104,964,1068,3,2,1.0,0.09374084606744876,1.0,-1.3968605915391563,0.38883333852157215,-0.6237048769213395,101,50,51,0,-1.1767566214275886,-1.170500554541026,-1.1314838693896585,0.4563983243081045,0.6826590830402832,0.6826590830402832,-1.1314838693896585,-1.170500554541026,1,1,1,0,-1.170500554541026,-1.1314838693896585
226,1,227,23,85,80,0,1851.808,94,874.096,MORE,-572,1508,936,2,2,-5.0,-0.4687042303372438,5.0,-0.6984302957695783,1.417719791059359,-0.7378205000282378,165,85,80,1,0.09972513740911768,0.19508342575683765,0.0,-0.3993485337695917,-0.13912115374467193,0.13912115374467193,0.0,0.19508342575683765,1,0,0,1,0.19508342575683765,0.0
227,1,228,11,50,49,1,1321.034,64,1625.473,MORE,170,582,752,1,2,-1.0,-0.09374084606744876,1.0,-1.3968605915391563,-0.1256098877473213,-1.1708812285855568,99,50,49,1,-1.2166466763912356,-1.170500554541026,-1.2095172396923934,-1.2550953918472878,0.7628920647382227,0.7628920647382227,-1.2095172396923934,-1.170500554541026,0,0,1,0,-1.170500554541026,-1.2095172396923934
228,1,229,17,50,43,1,4003.124,84,710.547,MORE,-558,2450,1892,5,2,-7.0,-0.6561859224721414,7.0,-0.34921514788478913,0.9032765647904656,1.0174472303372608,93,50,43,1,-1.3363168412821769,-1.170500554541026,-1.4436173506005987,2.1678920404634967,-0.122102036414806,0.122102036414806,-1.4436173506005987,-1.170500554541026,1,1,0,0,-1.170500554541026,-1.4436173506005987
229,1,230,21,80,82,0,1954.281,64,1126.757,MORE,-966,1518,552,2,1,2.0,0.18748169213489754,2.0,-1.222253017596762,-0.1256098877473213,-0.6542123503497417,162,80,82,0,0.03989005496364707,0.0,0.07803337030273506,-0.3993485337695917,-0.6180877414566133,0.6180877414566133,0.07803337030273506,0.0,0,0,0,1,0.07803337030273506,0.0
230,1,231,10,50,60,1,2030.128,84,954.748,MORE,644,914,1558,3,2,10.0,0.9374084606744876,10.0,0.17460757394239454,0.9032765647904656,-0.5923284655345719,110,50,60,0,-0.9972513740911768,-1.170500554541026,-0.7803337030273506,0.4563983243081045,1.3391107514779692,1.3391107514779692,-0.7803337030273506,-1.170500554541026,1,1,1,0,-1.170500554541026,-0.7803337030273506
231,1,232,3,53,50,0,1964.125,74,876.316,MORE,-798,1458,660,2,2,-3.0,-0.28122253820234633,3.0,-1.0476454436543674,0.38883333852157215,-0.6461805895402102,103,53,50,1,-1.1368665664639415,-1.0534504990869233,-1.170500554541026,-0.3993485337695917,-0.41385833349822204,0.41385833349822204,-1.170500554541026,-1.0534504990869233,1,0,0,0,-1.0534504990869233,-1.170500554541026
232,1,233,45,122,110,0,2014.069,34,984.045,MORE,-1062,1572,510,2,1,-12.0,-1.124890152809385,12.0,0.5238227218271837,-1.6689395665540017,-0.6054310708617016,232,122,110,1,1.4360419786912946,1.6387007763574364,1.170500554541026,-0.3993485337695917,-0.7347902602899796,0.7347902602899796,1.170500554541026,1.6387007763574364,0,0,0,2,1.6387007763574364,1.170500554541026
233,1,234,38,67,80,1,1598.829,64,1315.51,MORE,160,694,854,1,2,13.0,1.218630998876834,13.0,0.6984302957695783,-0.1256098877473213,-0.9442271251637984,147,67,80,0,-0.25928535726370594,-0.5072169069677779,0.0,-1.2550953918472878,0.750735552359747,0.750735552359747,0.0,-0.5072169069677779,0,0,1,1,-0.5072169069677779,0.0
234,1,235,38,80,67,1,1453.6029999999996,64,1718.6129999999996,MORE,170,724,894,1,1,-13.0,-1.218630998876834,13.0,0.6984302957695783,-0.1256098877473213,-1.0627176265174167,147,80,67,1,-0.25928535726370594,0.0,-0.5072169069677779,-1.2550953918472878,0.7628920647382227,0.7628920647382227,-0.5072169069677779,0.0,0,0,1,1,0.0,-0.5072169069677779
235,1,236,36,70,80,1,1977.727,54,1440.858,MORE,-852,1508,656,3,2,10.0,0.9374084606744876,10.0,0.17460757394239454,-0.6400531140162148,-0.6350826607987181,150,70,80,0,-0.19945027481823535,-0.3901668515136753,0.0,0.4563983243081045,-0.47950350034199063,0.47950350034199063,0.0,-0.3901668515136753,0,1,0,1,-0.3901668515136753,0.0
236,1,237,45,110,122,1,1623.8970000000004,84,1477.973,MORE,822,576,1398,1,2,12.0,1.124890152809385,12.0,0.5238227218271837,0.9032765647904656,-0.923774039022663,232,110,122,0,1.4360419786912946,1.170500554541026,1.6387007763574364,-1.2550953918472878,1.5554966718148362,1.5554966718148362,1.6387007763574364,1.170500554541026,1,0,1,2,1.6387007763574364,1.170500554541026
237,1,238,42,110,115,1,2901.364,64,2333.854,MORE,-650,1714,1064,3,2,5.0,0.4687042303372438,5.0,-0.6984302957695783,-0.1256098877473213,0.11851663408478487,225,110,115,0,1.2964267863185297,1.170500554541026,1.3655839802978638,0.4563983243081045,-0.23394195029678216,0.23394195029678216,1.3655839802978638,1.170500554541026,0,1,0,2,1.3655839802978638,1.170500554541026
238,1,239,41,110,112,1,1565.164,74,810.788,MORE,142,794,936,1,2,2.0,0.18748169213489754,2.0,-1.222253017596762,0.38883333852157215,-0.9716945395942004,222,110,112,0,1.2365917038730592,1.170500554541026,1.248533924843761,-1.2550953918472878,0.7288538300784908,0.7288538300784908,1.248533924843761,1.170500554541026,1,0,1,2,1.248533924843761,1.170500554541026
239,1,240,53,110,103,1,1559.884,94,647.066,MORE,772,710,1482,1,2,-7.0,-0.6561859224721414,7.0,-0.34921514788478913,1.417719791059359,-0.9760025136976468,213,110,103,1,1.0570864565366473,1.170500554541026,0.8973837584814532,-1.2550953918472878,1.494714109922458,1.494714109922458,0.8973837584814532,1.170500554541026,1,0,1,2,1.170500554541026,0.8973837584814532
240,2,1,49,110,131,1,6228.547,44,2706.716,MORE,-774,2818,2044,0,1,21.0,1.9685577674164243,21.0,2.0952908873087353,-0.2383866467636475,-0.3827015480638571,241,110,131,0,1.6155472260277064,1.170500554541026,1.9898509427197442,-1.2453033096779946,0.08615765871235868,0.08615765871235868,1.9898509427197442,1.170500554541026,0,0,0,2,1.9898509427197442,1.170500554541026
241,2,2,13,47,50,1,6635.751,54,1508.9879999999996,MORE,-100,2964,2864,1,2,3.0,0.28122253820234633,3.0,-1.0476454436543674,0.3862071875515856,-0.3377033166291929,97,47,50,0,-1.2565367313548828,-1.2875506099951286,-1.170500554541026,-0.9649348347035869,0.2578531063212773,0.2578531063212773,-1.170500554541026,-1.2875506099951286,1,0,1,0,-1.2875506099951286,-1.170500554541026
242,2,3,16,50,44,0,4766.7440000000015,64,1664.542,MORE,-2342,3374,1032,1,1,-6.0,-0.5624450764046927,6.0,-0.5238227218271837,1.0108010218668186,-0.544238639315137,94,50,44,1,-1.3163718138003533,-1.170500554541026,-1.4046006654492311,-0.9649348347035869,-0.3132762609475587,0.3132762609475587,-1.4046006654492311,-1.170500554541026,1,0,0,0,-1.170500554541026,-1.4046006654492311
243,2,4,7,57,50,0,10945.402,44,3357.675,MORE,-3794,6598,2804,3,1,-7.0,-0.6561859224721414,7.0,-0.34921514788478913,-0.2383866467636475,0.13853629079271718,107,57,50,1,-1.0570864565366473,-0.8973837584814532,-1.170500554541026,-0.40419788475477125,-0.6831602222652884,0.6831602222652884,-1.170500554541026,-0.8973837584814532,0,1,0,0,-0.8973837584814532,-1.170500554541026
244,2,5,18,42,50,1,5673.265,54,1448.471,MORE,-2798,4022,1224,1,2,8.0,0.7499267685395902,8.0,-0.17460757394239454,0.3862071875515856,-0.4440631946771102,92,42,50,0,-1.3562618687640005,-1.4826340357519663,-1.170500554541026,-0.9649348347035869,-0.42943816615477964,0.42943816615477964,-1.170500554541026,-1.4826340357519663,1,0,0,0,-1.4826340357519663,-1.170500554541026
245,2,6,51,108,110,1,46657.359,44,2199.183,MORE,19840,3150,22990,0,2,2.0,0.18748169213489754,2.0,-1.222253017596762,-0.2383866467636475,4.084899553606373,218,108,110,0,1.156811593945765,1.092467184238291,1.170500554541026,-1.2453033096779946,5.337389048935279,5.337389048935279,1.170500554541026,1.092467184238291,0,0,1,2,1.170500554541026,1.092467184238291
246,2,7,31,78,80,0,7750.691,54,1752.105,MORE,-2098,4108,2010,3,2,2.0,0.18748169213489754,2.0,-1.222253017596762,0.3862071875515856,-0.2144964518740227,158,78,80,0,-0.03989005496364707,-0.07803337030273506,0.0,-0.40419788475477125,-0.2511194520208879,0.2511194520208879,0.0,-0.07803337030273506,1,0,0,1,-0.07803337030273506,0.0
247,2,8,58,110,92,0,9776.843,44,1876.795,MORE,40,4390,4430,1,2,-18.0,-1.6873352292140782,18.0,1.571468165481551,-0.2383866467636475,0.00940423824151533,202,110,92,1,0.8376911542365885,1.170500554541026,0.4682002218164104,-0.9649348347035869,0.29351684914805565,0.29351684914805565,0.4682002218164104,1.170500554541026,0,0,1,2,1.170500554541026,0.4682002218164104
248,2,9,12,50,48,1,7758.235,54,1338.013,MORE,1078,2096,3174,1,2,-2.0,-0.18748169213489754,2.0,-1.222253017596762,0.3862071875515856,-0.2136627993118104,98,50,48,1,-1.2365917038730592,-1.170500554541026,-1.248533924843761,-0.9649348347035869,0.5579380281065979,0.5579380281065979,-1.248533924843761,-1.170500554541026,1,0,1,0,-1.170500554541026,-1.248533924843761
249,2,10,54,110,101,0,44526.337,34,1508.46,MORE,-25146,28094,2948,0,1,-9.0,-0.8436676146070391,9.0,0.0,-0.8629804810788805,3.84941016463092,211,110,101,1,1.0171964015730004,1.170500554541026,0.8193503881787182,-1.2453033096779946,-6.122390485389368,6.122390485389368,0.8193503881787182,1.170500554541026,0,0,0,2,1.170500554541026,0.8193503881787182
250,2,11,14,46,50,1,10806.455,44,1927.361,MORE,-1044,4480,3436,1,2,4.0,0.3749633842697951,4.0,-0.8730378697119728,-0.2383866467636475,0.12318190020924485,96,46,50,0,-1.2764817588367063,-1.3265672951464962,-1.170500554541026,-0.9649348347035869,0.01737758326071474,0.01737758326071474,-1.170500554541026,-1.3265672951464962,0,0,0,0,-1.3265672951464962,-1.170500554541026
251,2,12,22,80,83,1,5936.281,44,1562.155,MORE,-1008,2684,1676,1,2,3.0,0.28122253820234633,3.0,-1.0476454436543674,-0.2383866467636475,-0.4149985125054724,163,80,83,0,0.05983508244547061,0.0,0.1170500554541026,-0.9649348347035869,0.0265482599876006,0.0265482599876006,0.1170500554541026,0.0,0,0,0,1,0.1170500554541026,0.0
252,2,13,6,50,56,0,22118.048,34,1101.606,MORE,9542,2232,11774,1,2,6.0,0.5624450764046927,6.0,-0.5238227218271837,-0.8629804810788805,1.3731737463323823,106,50,56,0,-1.077031484018471,-1.170500554541026,-0.9364004436328208,-0.9649348347035869,2.71406602300554,2.71406602300554,-0.9364004436328208,-1.170500554541026,0,0,1,0,-1.170500554541026,-0.9364004436328208
253,2,14,13,50,47,0,7867.571999999999,44,3369.01,MORE,-1188,4166,2978,3,2,-3.0,-0.28122253820234633,3.0,-1.0476454436543674,-0.2383866467636475,-0.2015804729339461,97,50,47,1,-1.2565367313548828,-1.170500554541026,-1.2875506099951286,-0.40419788475477125,-0.0193051236468287,0.0193051236468287,-1.2875506099951286,-1.170500554541026,0,0,0,0,-1.170500554541026,-1.2875506099951286
254,2,15,46,110,124,1,24336.379,54,1630.879,MORE,-8906,12596,3690,0,2,14.0,1.3123718449442827,14.0,0.8730378697119728,0.3862071875515856,1.6183112492466218,234,110,124,0,1.4759320336549415,1.170500554541026,1.7167341466601715,-1.2453033096779946,-1.9853963174830804,1.9853963174830804,1.7167341466601715,1.170500554541026,1,0,0,2,1.7167341466601715,1.170500554541026
255,2,16,27,91,80,0,12568.18,64,2302.5460000000007,MORE,-5716,7476,1760,2,1,-11.0,-1.0311493067419364,11.0,0.34921514788478913,1.0108010218668186,0.3178619850665488,171,91,80,1,0.21939530230005888,0.4291835366650429,0.0,-0.6845663597291791,-1.1727724630729166,1.1727724630729166,0.0,0.4291835366650429,1,0,0,1,0.4291835366650429,0.0
256,2,17,40,64,80,1,7216.4209999999985,54,2637.44,MORE,1098,2618,3716,1,2,16.0,1.4998535370791803,16.0,1.222253017596762,0.3862071875515856,-0.27353615951097626,144,64,80,0,-0.3191204397091766,-0.6242669624218805,0.0,-0.9649348347035869,0.5630328485104233,0.5630328485104233,0.0,-0.6242669624218805,1,0,1,1,-0.6242669624218805,0.0
257,2,18,22,83,80,0,24450.946,14,2532.688,MORE,7056,3328,10384,0,1,-3.0,-0.28122253820234633,3.0,-1.0476454436543674,-2.1121681497093467,1.6309715187448957,163,83,80,1,0.05983508244547061,0.1170500554541026,0.0,-1.2453033096779946,2.0807798468100334,2.0807798468100334,0.0,0.1170500554541026,0,0,1,1,0.1170500554541026,0.0
258,2,19,54,101,110,1,20652.52,64,1312.765,MORE,-9126,12034,2908,0,2,9.0,0.8436676146070391,9.0,0.0,1.0108010218668186,1.2112250225527037,211,101,110,0,1.0171964015730004,0.8193503881787182,1.170500554541026,-1.2453033096779946,-2.0414393419251606,2.0414393419251606,1.170500554541026,0.8193503881787182,1,0,0,2,1.170500554541026,0.8193503881787182
259,2,20,6,56,50,0,9962.632,54,2276.246,MORE,-1074,3966,2892,0,2,-6.0,-0.5624450764046927,6.0,-0.5238227218271837,0.3862071875515856,0.029934921682775124,106,56,50,1,-1.077031484018471,-0.9364004436328208,-1.170500554541026,-1.2453033096779946,0.009735352654976524,0.009735352654976524,-1.170500554541026,-0.9364004436328208,1,0,0,0,-0.9364004436328208,-1.170500554541026
260,2,21,18,50,42,0,15264.738,54,1635.842,MORE,-880,4796,3916,0,2,-8.0,-0.7499267685395902,8.0,-0.17460757394239454,0.3862071875515856,0.6158461427884643,92,50,42,1,-1.3562618687640005,-1.170500554541026,-1.4826340357519663,-1.2453033096779946,0.059155110572083655,0.059155110572083655,-1.4826340357519663,-1.170500554541026,1,0,0,0,-1.170500554541026,-1.4826340357519663
261,2,22,43,110,117,1,14577.04,44,2014.369,MORE,-3946,6904,2958,0,2,7.0,0.6561859224721414,7.0,-0.34921514788478913,-0.2383866467636475,0.5398518162073022,227,110,117,0,1.3363168412821769,1.170500554541026,1.4436173506005987,-1.2453033096779946,-0.721880857334362,0.721880857334362,1.4436173506005987,1.170500554541026,0,0,0,2,1.4436173506005987,1.170500554541026
262,2,23,32,77,80,0,10502.538,44,1051.856,MORE,-2756,4920,2164,1,2,3.0,0.28122253820234633,3.0,-1.0476454436543674,-0.2383866467636475,0.08959743762309935,157,77,80,0,-0.05983508244547061,-0.1170500554541026,0.0,-0.9649348347035869,-0.41873904330674616,0.41873904330674616,0.0,-0.1170500554541026,1,0,0,1,-0.1170500554541026,0.0
263,2,24,27,80,91,1,8938.346,44,1513.951,MORE,-1476,4144,2668,0,2,11.0,1.0311493067419364,11.0,0.34921514788478913,-0.2383866467636475,-0.08325418864837668,171,80,91,0,0.21939530230005888,0.0,0.4291835366650429,-1.2453033096779946,-0.09267053746191557,0.09267053746191557,0.4291835366650429,0.0,0,0,0,1,0.4291835366650429,0.0
264,2,25,16,44,50,1,8371.705,34,1023.203,MORE,-438,3020,2582,1,2,6.0,0.5624450764046927,6.0,-0.5238227218271837,-0.8629804810788805,-0.1458710658361486,94,44,50,0,-1.3163718138003533,-1.4046006654492311,-1.170500554541026,-0.9649348347035869,0.17175064149662672,0.17175064149662672,-1.170500554541026,-1.4046006654492311,0,0,1,0,-1.4046006654492311,-1.170500554541026
265,2,26,7,50,57,0,8634.889000000001,54,2300.298,MORE,1150,2756,3906,1,2,7.0,0.6561859224721414,7.0,-0.34921514788478913,0.3862071875515856,-0.1167878187612164,107,50,57,0,-1.0570864565366473,-1.170500554541026,-0.8973837584814532,-0.9649348347035869,0.5762793815603696,0.5762793815603696,-0.8973837584814532,-1.170500554541026,1,0,1,0,-1.170500554541026,-0.8973837584814532
266,2,27,14,50,46,0,9256.349,54,2087.074,MORE,-3174,5374,2200,1,2,-4.0,-0.3749633842697951,4.0,-0.8730378697119728,0.3862071875515856,-0.048113147325311315,96,50,46,1,-1.2764817588367063,-1.170500554541026,-1.3265672951464962,-0.9649348347035869,-0.5252207897466986,0.5252207897466986,-1.3265672951464962,-1.170500554541026,1,0,0,0,-1.170500554541026,-1.3265672951464962
267,2,28,51,110,108,0,98982.33,54,1930.567,MORE,-38214,41894,3680,2,1,-2.0,-0.18748169213489754,2.0,-1.222253017596762,0.3862071875515856,9.867090187465783,218,110,108,1,1.156811593945765,1.170500554541026,1.092467184238291,-0.6845663597291791,-9.451346137248935,9.451346137248935,1.092467184238291,1.170500554541026,1,0,0,2,1.170500554541026,1.092467184238291
268,2,29,50,133,110,0,71123.695,44,3266.077,MORE,-23686,30474,6788,0,2,-23.0,-2.1560394595513217,23.0,2.444506035193524,-0.2383866467636475,6.788561231011935,243,133,110,1,1.6554372809913533,2.0678843130224793,1.170500554541026,-1.2453033096779946,-5.7504685959101085,5.7504685959101085,1.170500554541026,2.0678843130224793,0,0,0,2,2.0678843130224793,1.170500554541026
269,2,30,49,131,110,1,14323.977,64,1098.639,MORE,-2602,5912,3310,7,2,-21.0,-1.9685577674164243,21.0,2.0952908873087353,1.0108010218668186,0.5118869940504707,241,131,110,1,1.6155472260277064,1.9898509427197442,1.170500554541026,0.7172760151428601,-0.37950892619728993,0.37950892619728993,1.170500554541026,1.9898509427197442,1,1,0,2,1.9898509427197442,1.170500554541026
270,2,31,47,126,110,1,11246.8,54,1615.594,MORE,-4838,7190,2352,2,2,-16.0,-1.4998535370791803,16.0,1.222253017596762,0.3862071875515856,0.17184239033482593,236,126,110,1,1.5158220886185887,1.7947675169629065,1.170500554541026,-0.6845663597291791,-0.9491098473449784,0.9491098473449784,1.170500554541026,1.7947675169629065,1,0,0,2,1.7947675169629065,1.170500554541026
271,2,32,50,110,133,1,5729.5819999999985,64,903.808,MORE,-698,2656,1958,2,2,23.0,2.1560394595513217,23.0,2.444506035193524,1.0108010218668186,-0.4378398633746036,243,110,133,0,1.6554372809913533,1.170500554541026,2.0678843130224793,-0.6845663597291791,0.1055179762468955,0.1055179762468955,2.0678843130224793,1.170500554541026,1,0,0,2,2.0678843130224793,1.170500554541026
272,2,33,47,110,126,1,15507.063,54,2221.023,MORE,2616,4156,6772,4,2,16.0,1.4998535370791803,16.0,1.222253017596762,0.3862071875515856,0.6426243582097396,236,110,126,0,1.5158220886185887,1.170500554541026,1.7947675169629065,-0.1238294097803634,0.9497297171607771,0.9497297171607771,1.7947675169629065,1.170500554541026,1,1,1,2,1.7947675169629065,1.170500554541026
273,2,34,12,48,50,0,9584.002,54,1453.896,MORE,-2686,4780,2094,2,2,2.0,0.18748169213489754,2.0,-1.222253017596762,0.3862071875515856,-0.011905729116595277,98,48,50,0,-1.2365917038730592,-1.248533924843761,-1.170500554541026,-0.6845663597291791,-0.40090717189335695,0.40090717189335695,-1.170500554541026,-1.248533924843761,1,0,0,0,-1.248533924843761,-1.170500554541026
274,2,35,32,80,77,1,15060.043,44,1704.187,MORE,-442,5714,5272,5,2,-3.0,-0.28122253820234633,3.0,-1.0476454436543674,-0.2383866467636475,0.593226244694343,157,80,77,1,-0.05983508244547061,0.0,-0.1170500554541026,0.15653906519404445,0.17073167741586162,0.17073167741586162,-0.1170500554541026,0.0,0,1,1,1,0.0,-0.1170500554541026
275,2,36,43,117,110,1,13755.941,54,1722.052,MORE,-430,5400,4970,4,2,-7.0,-0.6561859224721414,7.0,-0.34921514788478913,0.3862071875515856,0.44911596186213054,227,117,110,1,1.3363168412821769,1.4436173506005987,1.170500554541026,-0.1238294097803634,0.1737885696581569,0.1737885696581569,1.170500554541026,1.4436173506005987,1,1,1,2,1.4436173506005987,1.170500554541026
276,2,37,40,80,64,0,4962.179,74,1493.033,MORE,-338,2306,1968,2,2,-16.0,-1.4998535370791803,16.0,1.222253017596762,1.6353948561820515,-0.5226420210097336,144,80,64,1,-0.3191204397091766,0.0,-0.6242669624218805,-0.6845663597291791,0.1972247435157541,0.1972247435157541,-0.6242669624218805,0.0,1,0,1,1,0.0,-0.6242669624218805
277,2,38,31,80,78,1,7058.905,44,1628.685,MORE,-1242,3130,1888,2,2,-2.0,-0.18748169213489754,2.0,-1.222253017596762,-0.2383866467636475,-0.29094252443534463,158,80,78,1,-0.03989005496364707,0.0,-0.07803337030273506,-0.6845663597291791,-0.033061138737157485,0.033061138737157485,-0.07803337030273506,0.0,0,0,0,1,0.0,-0.07803337030273506
278,2,39,46,124,110,1,6745.102,54,2401.298,MORE,648,2616,3264,2,2,-14.0,-1.3123718449442827,14.0,0.8730378697119728,0.3862071875515856,-0.3256194431760542,234,124,110,1,1.4759320336549415,1.7167341466601715,1.170500554541026,-0.6845663597291791,0.44839938942435015,0.44839938942435015,1.170500554541026,1.7167341466601715,1,0,1,2,1.7167341466601715,1.170500554541026
279,2,40,58,92,110,1,5223.511,74,2397.822,MORE,-12,3050,3038,2,1,18.0,1.6873352292140782,18.0,1.571468165481551,1.6353948561820515,-0.49376342989254496,202,92,110,0,0.8376911542365885,0.4682002218164104,1.170500554541026,-0.6845663597291791,0.2802703160981094,0.2802703160981094,1.170500554541026,0.4682002218164104,1,0,1,2,1.170500554541026,0.4682002218164104
280,2,41,49,110,131,0,4393.264,54,1958.711,LESS,-918,2668,1750,4,1,21.0,1.9685577674164243,21.0,2.0952908873087353,0.3862071875515856,-0.5855101874242381,241,110,131,1,1.6155472260277064,1.170500554541026,1.9898509427197442,-0.1238294097803634,0.04947495180481525,0.04947495180481525,1.9898509427197442,1.170500554541026,1,0,0,2,1.9898509427197442,1.170500554541026
281,2,42,13,47,50,1,9018.968,44,2451.178,LESS,1000,3406,4406,4,2,3.0,0.28122253820234633,3.0,-1.0476454436543674,-0.2383866467636475,-0.07434502416392774,97,47,50,1,-1.2565367313548828,-1.2875506099951286,-1.170500554541026,-0.1238294097803634,0.5380682285316786,0.5380682285316786,-1.170500554541026,-1.2875506099951286,0,1,1,0,-1.2875506099951286,-1.170500554541026
282,2,43,16,50,44,1,2271.286,64,1742.966,LESS,-210,1354,1144,1,2,-6.0,-0.5624450764046927,6.0,-0.5238227218271837,1.0108010218668186,-0.8200001657723527,94,50,44,0,-1.3163718138003533,-1.170500554541026,-1.4046006654492311,-0.9649348347035869,0.22983159410023715,0.22983159410023715,-1.4046006654492311,-1.170500554541026,1,0,1,0,-1.170500554541026,-1.4046006654492311
